category,comments,descriptions,difficulty_rating,endDate,endTime,experiment_id,image,is_data_visualization,languages,minivlat_answers,minivlat_time,prolific_id,reaction_times,self_understanding,startDate,startTime,timeSpent,topic,trial_number,desc_type,minivlat_score,num_words,caption,alttext,char_count,num_words_caption,num_words_alttext,desc_caption_jaccard,desc_alttext_jaccard,desc_caption_sbert,desc_alttext_sbert,jaccard_alttext_caption,sbert_alttext_caption,question1,question10,question11,question12,question2,question3,question4,question5,question6,question7,question8,question9
Nutaarmiut / Population,,"a bar graph is shown by year, with variable increases and decreases but a downward trend between 2004-2010",4,Sun Nov 26 2023 16:12:51 GMT-0600 (Central Standard Time),1701036771637,1,prolific/train-0-42178.png,True,english,"{'question1': 'False', 'question10': '$0.71', 'question11': 'Skip', 'question12': 'False', 'question2': 'Great Britain', 'question3': '30-40 km', 'question4': 'True', 'question5': '17.6%', 'question6': 'Shanghai', 'question7': '$4.5', 'question8': '$50.54', 'question9': '40.51 Mbps'}",4.242533333333333,6001bbb7ffe5060f7e4c1b24,80822,Very Well,Sun Nov 26 2023 16:03:43 GMT-0600 (Central Standard Time),1701036223840,9.129950000000001,Nutaarmiut,0,first,10,19,Nutaarmiut population growth dynamics in the last two decades. Source: Statistics Greenland[2],Nutaarmiut population dynamics,106,17,3,0.5588235294117647,0.5,0.14000165462493896,0.07113604247570038,0.0,0.7322562336921692,1,1,0,1,1,1,1,1,1,0,1,1
Ikerasaarsuk / Population,,"a bar graph is shown with yearly pop trends, beginning with very low trends and rising upwards until 2000s, where data is variable until lowering between 2007-2010",5,Sun Nov 26 2023 16:12:51 GMT-0600 (Central Standard Time),1701036771637,1,prolific/train-0-370954.png,True,english,"{'question1': 'False', 'question10': '$0.71', 'question11': 'Skip', 'question12': 'False', 'question2': 'Great Britain', 'question3': '30-40 km', 'question4': 'True', 'question5': '17.6%', 'question6': 'Shanghai', 'question7': '$4.5', 'question8': '$50.54', 'question9': '40.51 Mbps'}",4.242533333333333,6001bbb7ffe5060f7e4c1b24,97193,Very Well,Sun Nov 26 2023 16:03:43 GMT-0600 (Central Standard Time),1701036223840,9.129950000000001,Ikerasaarsuk,1,first,10,29,Ikerasaarsuk population growth dynamics in the last two decades. Source: Statistics Greenland[4],Ikerasaarsuk population dynamics,163,17,3,0.4722222222222222,0.4827586206896552,0.1683868169784546,0.14761750400066376,0.0,0.7536988854408264,1,1,0,1,1,1,1,1,1,0,1,1
Nanortalik / Population,,"a bar graph is shown with variable trends between 1991-2004, where a steady downward trend is seen ",4,Sun Nov 26 2023 16:12:51 GMT-0600 (Central Standard Time),1701036771637,1,prolific/train-0-283458.png,True,english,"{'question1': 'False', 'question10': '$0.71', 'question11': 'Skip', 'question12': 'False', 'question2': 'Great Britain', 'question3': '30-40 km', 'question4': 'True', 'question5': '17.6%', 'question6': 'Shanghai', 'question7': '$4.5', 'question8': '$50.54', 'question9': '40.51 Mbps'}",4.242533333333333,6001bbb7ffe5060f7e4c1b24,45855,Very Well,Sun Nov 26 2023 16:03:43 GMT-0600 (Central Standard Time),1701036223840,9.129950000000001,Nanortalik,2,first,10,18,"Nanortalik population growth dynamics, 1991-2010. Source: Statistics Greenland[12]",Nanortalik population dynamics,99,14,3,0.6111111111111112,0.4,0.11349675059318542,0.09507019817829132,0.0,0.6886775493621826,1,1,0,1,1,1,1,1,1,0,1,1
Bishop Auckland / Demography,,"The visualization shows the average ages of Bishop Auckland residents compared to County Durham residents, as well as the whole of England and Wales.",4,Sun Nov 26 2023 16:19:08 GMT-0600 (Central Standard Time),1701037148260,1,prolific/train-0-245143.png,True,English,"{'question1': 'False', 'question10': '$0.71', 'question11': '1 to 2', 'question12': 'False', 'question2': 'Great Britain', 'question3': '30-40 km', 'question4': 'True', 'question5': '10.9%', 'question6': 'Shanghai', 'question7': '$5.2', 'question8': '$50.54', 'question9': '40.51 Mbps'}",6.109716666666666,5cdee86590d2dc0001f86b3a,94570,Well,Sun Nov 26 2023 16:05:21 GMT-0600 (Central Standard Time),1701036321366,13.781566666666667,Bishop Auckland,0,first,10,26,"""Population pyramid"" showing the breakdown of the Bishop Auckland's population vs Age compared with the figures for County Durham and England and Wales. Source:[9]","A bar chart comparing dividing the population into 5-year intervals, and comparing the percentage of the population of Bishop Auckland made up by each interval with the figures for England and Wales and County Durham. The graph shows that the towns population is broadly in line with that nationally, with the exception that Bishop Auckland has a much lower proportion of people aged 20 to 24 years.",149,32,71,0.7073170731707317,0.7948717948717948,0.7362522482872009,0.73935866355896,0.0,0.796863317489624,1,1,1,1,1,1,1,0,1,0,1,1
Tetration / Inverse operations / Super-root / Other super-roots,,A graph of the function sqrt3 times x times s.,5,Sun Nov 26 2023 16:19:08 GMT-0600 (Central Standard Time),1701037148260,1,prolific/train-0-28614.png,True,English,"{'question1': 'False', 'question10': '$0.71', 'question11': '1 to 2', 'question12': 'False', 'question2': 'Great Britain', 'question3': '30-40 km', 'question4': 'True', 'question5': '10.9%', 'question6': 'Shanghai', 'question7': '$5.2', 'question8': '$50.54', 'question9': '40.51 Mbps'}",6.109716666666666,5cdee86590d2dc0001f86b3a,68995,Well,Sun Nov 26 2023 16:05:21 GMT-0600 (Central Standard Time),1701036321366,13.781566666666667,Tetration,1,first,10,11,"The graph
  
    
      
        y
        =
        
          
            
              x
              
                3
              
            
          
          
            s
          
        
      
    
    {\displaystyle y={\sqrt[{3}]{x}}_{s}}
  
.",A line graph that starts at the origin and quickly makes an asymptote toward 2 as the value along the x-axis increases,46,27,22,0.42424242424242425,0.6206896551724138,0.6611992716789246,0.4547240436077118,0.0,0.4837883710861206,1,1,1,1,1,1,1,0,1,0,1,1
History of Georgetown University / Early growth / Early student life,,A graph depicting the lower student enrollment in Medical and Law schools when compared to general Academy and College.,2,Sun Nov 26 2023 16:19:08 GMT-0600 (Central Standard Time),1701037148260,1,prolific/train-0-75149.png,True,English,"{'question1': 'False', 'question10': '$0.71', 'question11': '1 to 2', 'question12': 'False', 'question2': 'Great Britain', 'question3': '30-40 km', 'question4': 'True', 'question5': '10.9%', 'question6': 'Shanghai', 'question7': '$5.2', 'question8': '$50.54', 'question9': '40.51 Mbps'}",6.109716666666666,5cdee86590d2dc0001f86b3a,116846,Well,Sun Nov 26 2023 16:05:21 GMT-0600 (Central Standard Time),1701036321366,13.781566666666667,History of Georgetown University,2,first,10,20,Graph of student enrollment 1791—1888,"A line graph of years from 1791 to 1888 with three subjects, the first in blue representing the Academy and College rises up from 69 in 1791 to 333 at its peak in 1857 followed by sudden drop and leveling around 200. The second, in red, represents the Medical School and begins in 1851 quickly peaking at 127 and then falling again while the third, in yellow, represents the law school which begins in 1871 and steadily rises to 168.",119,5,87,0.45161290322580644,0.5476190476190477,0.5980316400527954,0.5376114845275879,0.0,0.6151080131530762,1,1,1,1,1,1,1,0,1,0,1,1
Federal political financing in Canada / Private funding / Cost of fundraising,Thanks for the study!   :),Subsidized contributions raised more than Fundraising Expenses across the board. At least double or more of every party. Grand total is almost 3 times more.,4,Sun Nov 26 2023 16:25:11 GMT-0600 (Central Standard Time),1701037511271,1,prolific/train-0-14152.png,True,English,"{'question1': 'False', 'question10': '$0.71', 'question11': '1 to 2', 'question12': 'False', 'question2': 'Great Britain', 'question3': '30-40 km', 'question4': 'True', 'question5': '17.6%', 'question6': 'Shanghai', 'question7': '$5.2', 'question8': '$50.54', 'question9': '40.51 Mbps'}",5.981683333333335,60a5717cc2ad303816870f66,205646,Moderate,Sun Nov 26 2023 16:07:52 GMT-0600 (Central Standard Time),1701036472632,17.31065,Federal political financing in Canada,0,first,11,28,Party-level fundraising costs vs. party-level contributions raised at top three Canadian federal parties in 2009 (source: Elections Canada[4]),Party-level fundraising costs vs. party-level contributions raised at top three Canadian federal parties in 2009,156,24,15,0.5238095238095238,0.5833333333333334,0.6928289532661438,0.6960592269897461,0.0,0.9816362857818604,1,1,1,1,1,1,1,1,1,0,1,1
Nanortalik / Population,Thanks for the study!   :),"Overall, the population is right where it was 19 years prior in 1991. It spiked upwards in the mid nineties and early two thousands. ",3,Sun Nov 26 2023 16:25:11 GMT-0600 (Central Standard Time),1701037511271,1,prolific/train-0-283458.png,True,English,"{'question1': 'False', 'question10': '$0.71', 'question11': '1 to 2', 'question12': 'False', 'question2': 'Great Britain', 'question3': '30-40 km', 'question4': 'True', 'question5': '17.6%', 'question6': 'Shanghai', 'question7': '$5.2', 'question8': '$50.54', 'question9': '40.51 Mbps'}",5.981683333333335,60a5717cc2ad303816870f66,118746,Moderate,Sun Nov 26 2023 16:07:52 GMT-0600 (Central Standard Time),1701036472632,17.31065,Nanortalik,1,first,11,27,"Nanortalik population growth dynamics, 1991-2010. Source: Statistics Greenland[12]",Nanortalik population dynamics,133,14,3,0.6388888888888888,0.5357142857142857,0.27449849247932434,0.12817229330539703,0.0,0.6886775493621826,1,1,1,1,1,1,1,1,1,0,1,1
Ernie Toshack with the Australian cricket team in England in 1948 / Role,Thanks for the study!   :),"It's been really up & down for Ernie Toshack. He's done better in the ""test"" innings than the other first-class innings.",4,Sun Nov 26 2023 16:25:11 GMT-0600 (Central Standard Time),1701037511271,1,prolific/train-0-24640.png,True,English,"{'question1': 'False', 'question10': '$0.71', 'question11': '1 to 2', 'question12': 'False', 'question2': 'Great Britain', 'question3': '30-40 km', 'question4': 'True', 'question5': '17.6%', 'question6': 'Shanghai', 'question7': '$5.2', 'question8': '$50.54', 'question9': '40.51 Mbps'}",5.981683333333335,60a5717cc2ad303816870f66,112366,Moderate,Sun Nov 26 2023 16:07:52 GMT-0600 (Central Standard Time),1701036472632,17.31065,Ernie Toshack with the Australian cricket team in England in 1948,2,first,11,27,"A chart showing Toshack's batting performance during the tour. The runs scored per innings are represented by the bars, with the red bars being Test innings and the pink bars being other first-class innings. The blue line is the average of the five most recent innings and the dots indicate not outs.[10]","Toshack started the season with five first-class innings outside the Tests, and all were less than 10 and four were less than five, none were not out. He then scored two scores between 15 and 20 in the Tests, with a score of four outside the Tests in between. After scores of 1 and zero not out in the next two tour matches, he scored 12 not out in his third and final Test innings. He then finished with two in a tour match. All of his efforts beyond ten were in Tests, and he passed ten in all three Test innings, two of these being not out.",120,60,119,0.6578947368421053,0.625,0.5276270508766174,0.5732771158218384,0.0,0.5854800939559937,1,1,1,1,1,1,1,1,1,0,1,1
European debt crisis / Evolution of the crisis / Portugal,,"The data shows debt in percent of GDP for the country of Portugal vs the Eurozone average from the years 1999-2019, according to data from Oxford economics. Portugals percentage begins at 50% and gradually rises to 131 in 2015, before falling to 124 in 2019. The debt percentage is lower than the Eurozone average until 2006, at which Portugals debt percentage remains higher than the Eurozone average for the remaining years.",4,Sun Nov 26 2023 14:25:36 GMT-0800 (Pacific Standard Time),1701037536533,1,prolific/train-0-191651.png,True,English,"{'question1': 'False', 'question10': '$0.71', 'question11': '1 to 2', 'question12': 'False', 'question2': 'Great Britain', 'question3': '30-40 km', 'question4': 'True', 'question5': '17.6%', 'question6': 'Shanghai', 'question7': '$5.2', 'question8': '$50.54', 'question9': '40.51 Mbps'}",6.613166666666666,5ed731509a2ae019f3f4f6ea,216608,Well,Sun Nov 26 2023 14:02:00 GMT-0800 (Pacific Standard Time),1701036120628,23.598416666666665,European debt crisis,0,first,11,78,Debt of Portugal compared to eurozone average since 1999,Portuguese debt compared to eurozone average,426,9,6,0.5714285714285714,0.42857142857142855,0.8461868762969971,0.7924925684928894,0.0,0.9336457252502441,1,1,1,1,1,1,1,1,1,0,1,1
Electricity sector in Germany / Electricity prices,,"The data is presented as a pie chart representing the components of the German Power Price for the average household consumers in 2020, totaling 31,47 cent per kWh. The grid charges are the highest value, at 25,1%. Power generation or acquisition, and Sales is 22,4% of the price. Renewable surcharge is 21,5%. Value-added tax is 16%. Electricity tax is 6,5%. Concession fee of 1.66 Cent is 5,5%. Other levies make up the remaining 3,2%. Overall, taxes, levies, and surcharges make up 53% of the total price.",5,Sun Nov 26 2023 14:25:36 GMT-0800 (Pacific Standard Time),1701037536533,1,prolific/train-0-395010.png,True,English,"{'question1': 'False', 'question10': '$0.71', 'question11': '1 to 2', 'question12': 'False', 'question2': 'Great Britain', 'question3': '30-40 km', 'question4': 'True', 'question5': '17.6%', 'question6': 'Shanghai', 'question7': '$5.2', 'question8': '$50.54', 'question9': '40.51 Mbps'}",6.613166666666666,5ed731509a2ae019f3f4f6ea,386103,Well,Sun Nov 26 2023 14:02:00 GMT-0800 (Pacific Standard Time),1701036120628,23.598416666666665,Electricity sector in Germany,1,first,11,109,Components of the German Electricity Price for Households Source,Components Electricity Price Germany,508,9,4,0.4791666666666667,0.3829787234042553,0.7470686435699463,0.674909770488739,0.0,0.8207790851593018,1,1,1,1,1,1,1,1,1,0,1,1
Nanortalik / Population,,"The bar graph illustrates the rise and fall of population numbers of Nanortalik from 1991-2010, according to Statistics Greenland. The populations per year are as follows. 1991:1441, 1992:1483, 1993:1499, 1994:1508, 1995:1564, 1996:1527, 1997:1541, 1998:1506, 1999:1516, 2000:1538, 2001:1506, 2002:1544, 2003:1549, 2004:1529, 2005:1509, 2006:1476, 2007:1450, 2008:1445, 2009:1430, 2010:1448. The year 1995 saw the highest population, and the year 2009 saw the lowest.",4,Sun Nov 26 2023 14:25:36 GMT-0800 (Pacific Standard Time),1701037536533,1,prolific/train-0-283458.png,True,English,"{'question1': 'False', 'question10': '$0.71', 'question11': '1 to 2', 'question12': 'False', 'question2': 'Great Britain', 'question3': '30-40 km', 'question4': 'True', 'question5': '17.6%', 'question6': 'Shanghai', 'question7': '$5.2', 'question8': '$50.54', 'question9': '40.51 Mbps'}",6.613166666666666,5ed731509a2ae019f3f4f6ea,309536,Well,Sun Nov 26 2023 14:02:00 GMT-0800 (Pacific Standard Time),1701036120628,23.598416666666665,Nanortalik,2,first,11,85,"Nanortalik population growth dynamics, 1991-2010. Source: Statistics Greenland[12]",Nanortalik population dynamics,467,14,3,0.7380952380952381,0.425,0.6895676851272583,0.5297656059265137,0.0,0.6886775493621826,1,1,1,1,1,1,1,1,1,0,1,1
Nutaarmiut / Population,,Annual bar graph of the population,1,Sun Nov 26 2023 17:27:19 GMT-0500 (Eastern Standard Time),1701037639742,1,prolific/train-0-42178.png,True,English,"{'question1': 'False', 'question10': '$0.71', 'question11': '1 to 2', 'question12': 'False', 'question2': 'Great Britain', 'question3': '30-40 km', 'question4': 'True', 'question5': '17.6%', 'question6': 'Shanghai', 'question7': '$4.5', 'question8': '$50.54', 'question9': '40.51 Mbps'}",6.637583333333334,652ea878c4acb0163198c4b1,79173,Moderate,Sun Nov 26 2023 17:08:33 GMT-0500 (Eastern Standard Time),1701036513128,18.7769,Nutaarmiut,0,first,11,6,Nutaarmiut population growth dynamics in the last two decades. Source: Statistics Greenland[2],Nutaarmiut population dynamics,34,17,3,0.43333333333333335,0.45454545454545453,0.28300875425338745,0.3519662022590637,0.0,0.7322562336921692,1,1,1,1,1,1,1,1,1,0,1,1
Federal political financing in Canada / Private funding / Cost of fundraising,,3-d bar graph showing fundraising expenses compared to contributions for each party individually and combined,1,Sun Nov 26 2023 17:27:19 GMT-0500 (Eastern Standard Time),1701037639742,1,prolific/train-0-14152.png,True,English,"{'question1': 'False', 'question10': '$0.71', 'question11': '1 to 2', 'question12': 'False', 'question2': 'Great Britain', 'question3': '30-40 km', 'question4': 'True', 'question5': '17.6%', 'question6': 'Shanghai', 'question7': '$4.5', 'question8': '$50.54', 'question9': '40.51 Mbps'}",6.637583333333334,652ea878c4acb0163198c4b1,135306,Moderate,Sun Nov 26 2023 17:08:33 GMT-0500 (Eastern Standard Time),1701036513128,18.7769,Federal political financing in Canada,1,first,11,15,Party-level fundraising costs vs. party-level contributions raised at top three Canadian federal parties in 2009 (source: Elections Canada[4]),Party-level fundraising costs vs. party-level contributions raised at top three Canadian federal parties in 2009,109,24,15,0.5526315789473685,0.6774193548387096,0.6745352745056152,0.672389030456543,0.0,0.9816362857818604,1,1,1,1,1,1,1,1,1,0,1,1
Ernie Toshack with the Australian cricket team in England in 1948 / Role,,"From May to Aug, runs scored per inning is shown. Highest being in June & July. ",5,Sun Nov 26 2023 17:27:19 GMT-0500 (Eastern Standard Time),1701037639742,1,prolific/train-0-24640.png,True,English,"{'question1': 'False', 'question10': '$0.71', 'question11': '1 to 2', 'question12': 'False', 'question2': 'Great Britain', 'question3': '30-40 km', 'question4': 'True', 'question5': '17.6%', 'question6': 'Shanghai', 'question7': '$4.5', 'question8': '$50.54', 'question9': '40.51 Mbps'}",6.637583333333334,652ea878c4acb0163198c4b1,289113,Moderate,Sun Nov 26 2023 17:08:33 GMT-0500 (Eastern Standard Time),1701036513128,18.7769,Ernie Toshack with the Australian cricket team in England in 1948,2,first,11,19,"A chart showing Toshack's batting performance during the tour. The runs scored per innings are represented by the bars, with the red bars being Test innings and the pink bars being other first-class innings. The blue line is the average of the five most recent innings and the dots indicate not outs.[10]","Toshack started the season with five first-class innings outside the Tests, and all were less than 10 and four were less than five, none were not out. He then scored two scores between 15 and 20 in the Tests, with a score of four outside the Tests in between. After scores of 1 and zero not out in the next two tour matches, he scored 12 not out in his third and final Test innings. He then finished with two in a tour match. All of his efforts beyond ten were in Tests, and he passed ten in all three Test innings, two of these being not out.",80,60,119,0.6052631578947368,0.6153846153846154,0.48153817653656006,0.2532080411911011,0.0,0.5854800939559937,1,1,1,1,1,1,1,1,1,0,1,1
Green marketing / Adoptability / LOHAS,,% of general population in NMI defined consumer segments. 26% conventionals. 19% drifters. 19% naturalites. 19% unconcerned. 17% lohas.,2,Sun Nov 26 2023 16:28:55 GMT-0600 (Central Standard Time),1701037735511,1,prolific/train-0-480642.png,True,English,"{'question1': 'False', 'question10': '$0.71', 'question11': '1 to 2', 'question12': 'False', 'question2': 'Great Britain', 'question3': '30-40 km', 'question4': 'True', 'question5': '17.6%', 'question6': 'Shanghai', 'question7': '$7.5', 'question8': '$50.54', 'question9': '40.51 Mbps'}",4.423433333333333,610ecbc7f8f3b3810cd29a04,271323,Moderate,Sun Nov 26 2023 16:12:40 GMT-0600 (Central Standard Time),1701036760287,16.253733333333333,Green marketing,0,first,11,30,The distribution of the different types of LOHAS.[26],The distribution of the different types of LOHAS.,135,12,9,0.41025641025641024,0.3783783783783784,0.3192741870880127,0.3139550983905792,0.0,0.9695470929145813,1,1,1,1,1,1,1,1,1,0,1,1
Normally distributed and uncorrelated does not imply independent / Examples / A symmetric example,,Joint range of X {\displaystyle X} and Y {\displaystyle Y} . Darker indicates higher value of the density function. Creating an asymmetrical ‘X’ on an XY axis chart.,5,Sun Nov 26 2023 16:28:55 GMT-0600 (Central Standard Time),1701037735511,1,prolific/train-0-236684.png,True,English,"{'question1': 'False', 'question10': '$0.71', 'question11': '1 to 2', 'question12': 'False', 'question2': 'Great Britain', 'question3': '30-40 km', 'question4': 'True', 'question5': '17.6%', 'question6': 'Shanghai', 'question7': '$7.5', 'question8': '$50.54', 'question9': '40.51 Mbps'}",4.423433333333333,610ecbc7f8f3b3810cd29a04,136331,Moderate,Sun Nov 26 2023 16:12:40 GMT-0600 (Central Standard Time),1701036760287,16.253733333333333,Normally distributed and uncorrelated does not imply independent,1,first,11,36,"Joint range of
  
    
      
        X
      
    
    {\displaystyle X}
  
 and
  
    
      
        Y
      
    
    {\displaystyle Y}
  
. Darker indicates higher value of the density function.","Two normally distributed, uncorrelated but dependent variables.",165,24,9,0.8235294117647058,0.4864864864864865,0.9035309553146362,0.25732436776161194,0.0,0.21613773703575134,1,1,1,1,1,1,1,1,1,0,1,1
Bishop Auckland / Demography,,"The comparison between ‘England and Wales’, ‘County of Durham’, and ‘Bishop Auckland’. The percent of population with Age groups on an XY axis chart.",3,Sun Nov 26 2023 16:28:55 GMT-0600 (Central Standard Time),1701037735511,1,prolific/train-0-245143.png,True,English,"{'question1': 'False', 'question10': '$0.71', 'question11': '1 to 2', 'question12': 'False', 'question2': 'Great Britain', 'question3': '30-40 km', 'question4': 'True', 'question5': '17.6%', 'question6': 'Shanghai', 'question7': '$7.5', 'question8': '$50.54', 'question9': '40.51 Mbps'}",4.423433333333333,610ecbc7f8f3b3810cd29a04,150316,Moderate,Sun Nov 26 2023 16:12:40 GMT-0600 (Central Standard Time),1701036760287,16.253733333333333,Bishop Auckland,2,first,11,34,"""Population pyramid"" showing the breakdown of the Bishop Auckland's population vs Age compared with the figures for County Durham and England and Wales. Source:[9]","A bar chart comparing dividing the population into 5-year intervals, and comparing the percentage of the population of Bishop Auckland made up by each interval with the figures for England and Wales and County Durham. The graph shows that the towns population is broadly in line with that nationally, with the exception that Bishop Auckland has a much lower proportion of people aged 20 to 24 years.",149,32,71,0.6444444444444445,0.7619047619047619,0.8164668083190918,0.7991539239883423,0.0,0.796863317489624,1,1,1,1,1,1,1,1,1,0,1,1
Great Southern Group / Fall,"We were raised with both languages being spoken, to prepare us for school, and to keep culture tradition going.","From 1999 through 2002, total assets and net assets remained steady, with a sharp increase beginning in 2003 leading into 2009 where it has leveled off and peaked at a 900% increase.",3,Sun Nov 26 2023 16:31:53 GMT-0600 (Central Standard Time),1701037913994,1,prolific/train-0-105181.jpg,True,"English, Spanish.","{'question1': 'False', 'question10': '$0.71', 'question11': '1 to 3', 'question12': 'Skip', 'question2': 'Great Britain', 'question3': '30-40 km', 'question4': 'True', 'question5': '17.6%', 'question6': 'Shanghai', 'question7': '$4.5', 'question8': '$50.54', 'question9': '40.51 Mbps'}",5.09225,63e51c6b462cfa8a42eba8b2,126501,Moderate,Sun Nov 26 2023 16:14:44 GMT-0600 (Central Standard Time),1701036884839,17.152583333333332,Great Southern Group,0,first,9,36,"Great Southern Group's assets. Net assets were ultimately limited by the company's ""unsustainable levels"" of debt.[4]","area graph with years on the x-axis, ranging from 1999 to 2008, and thousands of dollars on the y-axis. Two areas are shown: net assets climb until 2005 then stay at a similar level to 2008, below the 800 million dollar line; gross assets climb above net assets and are still increasing in 2008, where they are near the 1.8 billion dollar line",182,25,70,0.55,0.717948717948718,0.3528643548488617,0.5181388854980469,0.0,0.3171207308769226,1,1,0,0,1,1,1,1,1,0,1,1
Anatomy of an Epidemic / Synopsis / Magic bullets,"We were raised with both languages being spoken, to prepare us for school, and to keep culture tradition going.","Both SSDI, SSI recipients with mental disability has continued to increase at a steady pace with Prozac introduced, with 2003 Total number of SSI and SDI payments to disabled mentally ill recepients peaking at 6,000,000.",5,Sun Nov 26 2023 16:31:53 GMT-0600 (Central Standard Time),1701037913994,1,prolific/train-0-29695.png,True,"English, Spanish.","{'question1': 'False', 'question10': '$0.71', 'question11': '1 to 3', 'question12': 'Skip', 'question2': 'Great Britain', 'question3': '30-40 km', 'question4': 'True', 'question5': '17.6%', 'question6': 'Shanghai', 'question7': '$4.5', 'question8': '$50.54', 'question9': '40.51 Mbps'}",5.09225,63e51c6b462cfa8a42eba8b2,252775,Moderate,Sun Nov 26 2023 16:14:44 GMT-0600 (Central Standard Time),1701036884839,17.152583333333332,Anatomy of an Epidemic,1,first,9,38,"Number of Americans who received SSDI and SSI for mental disability in 1987 (blue) when Eli Lilly and Company introduced the antidepressive drug Prozac, compared to 2003 (red).",Chart showing increase (in red) over baseline (in blue) between 1987 and 2003,220,34,17,0.6595744680851063,0.46511627906976744,0.6048475503921509,0.11453934013843536,0.0,0.06947505474090576,1,1,0,0,1,1,1,1,1,0,1,1
Cloture / United States / Procedure,"We were raised with both languages being spoken, to prepare us for school, and to keep culture tradition going.","Cloture motions, votes on cloture and cloture invoked remained steady from 1917 with slight increases in 1925/1926, and 1945/1946, 20 years later, before leveling off to lowest numbers in 1955/1956. Cloture motions beginning in 1967 throughout 1974 increased sharply, following votes on cloture, and lastly following a similar pattern were cloture invoked. Which all 3 continued to increase in similar patterns following one another in the same pattern throughout until sharply peaking in 2007/2008, before tapering off.",4,Sun Nov 26 2023 16:31:53 GMT-0600 (Central Standard Time),1701037913994,1,prolific/train-0-76637.png,True,"English, Spanish.","{'question1': 'False', 'question10': '$0.71', 'question11': '1 to 3', 'question12': 'Skip', 'question2': 'Great Britain', 'question3': '30-40 km', 'question4': 'True', 'question5': '17.6%', 'question6': 'Shanghai', 'question7': '$4.5', 'question8': '$50.54', 'question9': '40.51 Mbps'}",5.09225,63e51c6b462cfa8a42eba8b2,170870,Moderate,Sun Nov 26 2023 16:14:44 GMT-0600 (Central Standard Time),1701036884839,17.152583333333332,Cloture,2,first,9,87,"Cloture voting in the United States Senate , 1917−2014.[43]","Number of cloture motions filed, voted on, and invoked by the U.S. Senate, 1917−2014.",520,13,18,0.5813953488372093,0.6666666666666666,0.5936933755874634,0.6522400975227356,0.0,0.7984388470649719,1,1,0,0,1,1,1,1,1,0,1,1
"Safety of electronic cigarettes / Fires, explosions, and other battery-related malfunctions",,Cigarette sales have increased dramatically in recent years; a 2016 survey found that the number of e-cigarettes sold nearly reached the number of explosions.,3,Sun Nov 26 2023 16:35:43 GMT-0600 (Central Standard Time),1701038143018,1,prolific/train-0-407025.png,True,English,"{'question1': 'False', 'question10': '$0.71', 'question11': '1 to 4', 'question12': 'Skip', 'question2': 'USA', 'question3': '30-40 km', 'question4': 'True', 'question5': '25.3%', 'question6': 'Shanghai', 'question7': '$4.5', 'question8': '$50.54', 'question9': '40.51 Mbps'}",11.62805,5be8a1701664db0001d804f8,142300,Little,Sun Nov 26 2023 16:10:37 GMT-0600 (Central Standard Time),1701036637437,25.093016666666667,Safety of electronic cigarettes,0,first,7,26,Graphic from a July 2016 United States Fire Administration (USFA) report entitled Electronic Cigarette Fires and Explosions in the United States 2009 – 2016.[326] There has been an increase in the number of severe and moderate injuries resulting from e-cigarette explosions and fires since 2014.[326] The USFA noted that this appears to correlate well with the e-cigarette sales trend.[326],Graphic from a July 2016 United States Fire Administration (USFA) report entitled Electronic Cigarette Fires and Explosions in the United States 2009 – 2016. There has been an increase in the number of severe and moderate injuries resulting from e-cigarette explosions and fires since 2014. The USFA noted that this appears to correlate well with the e-cigarette sales trend.,158,73,64,0.6041666666666666,0.6444444444444445,0.6955771446228027,0.665899395942688,0.0,0.982559084892273,1,1,0,0,0,1,1,0,1,0,1,1
European debt crisis / Evolution of the crisis / Portugal,,Portugal's debt is nearly one and a half times greater than that of the rest of Europe.,3,Sun Nov 26 2023 16:35:43 GMT-0600 (Central Standard Time),1701038143018,1,prolific/train-0-191651.png,True,English,"{'question1': 'False', 'question10': '$0.71', 'question11': '1 to 4', 'question12': 'Skip', 'question2': 'USA', 'question3': '30-40 km', 'question4': 'True', 'question5': '25.3%', 'question6': 'Shanghai', 'question7': '$4.5', 'question8': '$50.54', 'question9': '40.51 Mbps'}",11.62805,5be8a1701664db0001d804f8,114929,Little,Sun Nov 26 2023 16:10:37 GMT-0600 (Central Standard Time),1701036637437,25.093016666666667,European debt crisis,1,first,7,19,Debt of Portugal compared to eurozone average since 1999,Portuguese debt compared to eurozone average,87,9,6,0.6206896551724138,0.5769230769230769,0.7578625679016113,0.7197715044021606,0.0,0.9336457252502441,1,1,0,0,0,1,1,0,1,0,1,1
Tetration / Inverse operations / Super-root / Other super-roots,,This does not make sense to me; it might have an error of disposition.,5,Sun Nov 26 2023 16:35:43 GMT-0600 (Central Standard Time),1701038143018,1,prolific/train-0-28614.png,False,English,"{'question1': 'False', 'question10': '$0.71', 'question11': '1 to 4', 'question12': 'Skip', 'question2': 'USA', 'question3': '30-40 km', 'question4': 'True', 'question5': '25.3%', 'question6': 'Shanghai', 'question7': '$4.5', 'question8': '$50.54', 'question9': '40.51 Mbps'}",11.62805,5be8a1701664db0001d804f8,118174,Little,Sun Nov 26 2023 16:10:37 GMT-0600 (Central Standard Time),1701036637437,25.093016666666667,Tetration,2,first,7,16,"The graph
  
    
      
        y
        =
        
          
            
              x
              
                3
              
            
          
          
            s
          
        
      
    
    {\displaystyle y={\sqrt[{3}]{x}}_{s}}
  
.",A line graph that starts at the origin and quickly makes an asymptote toward 2 as the value along the x-axis increases,70,27,22,0.3939393939393939,0.5333333333333333,0.07013905793428421,0.07504655420780182,0.0,0.4837883710861206,1,1,0,0,0,1,1,0,1,0,1,1
Great Southern Group / Fall,Thank you for allowing me to take the survey.,"A graph depicting the assets of Great Southern Group with two sets of data depicted Net assets in the color green and total assets in the color red the graph includes data from 1999-2008 and accounts for assets up to $1,800,000.",3,Sun Nov 26 2023 15:38:35 GMT-0500 (Eastern Standard Time),1701031115261,1,prolific/train-0-105181.jpg,False,English,"{'question1': 'False', 'question10': 'Skip', 'question11': 'Skip', 'question12': 'True', 'question2': 'Great Britain', 'question3': '30-40 km', 'question4': 'True', 'question5': '17.6%', 'question6': 'Shanghai', 'question7': '$4.5', 'question8': '$50.54', 'question9': '40.51 Mbps'}",4.623283333333333,60b6b40c9289145addeee2ff,153548,Little,Sun Nov 26 2023 15:26:03 GMT-0500 (Eastern Standard Time),1701030363772,12.524816666666666,Great Southern Group,0,first,8,43,"Great Southern Group's assets. Net assets were ultimately limited by the company's ""unsustainable levels"" of debt.[4]","area graph with years on the x-axis, ranging from 1999 to 2008, and thousands of dollars on the y-axis. Two areas are shown: net assets climb until 2005 then stay at a similar level to 2008, below the 800 million dollar line; gross assets climb above net assets and are still increasing in 2008, where they are near the 1.8 billion dollar line",228,25,70,0.55,0.675,0.3707597255706787,0.5687100887298584,0.0,0.3171207308769226,1,0,0,0,1,1,1,1,1,0,1,1
InflateSail / Altitude loss,Thank you for allowing me to take the survey.,A graph depicting the mean height in KM for a company INFLATESAIL the data is from 2017 and ranges from 480-380 the mean height decreased overtime.,3,Sun Nov 26 2023 15:38:35 GMT-0500 (Eastern Standard Time),1701031115261,1,prolific/train-0-183840.jpg,True,English,"{'question1': 'False', 'question10': 'Skip', 'question11': 'Skip', 'question12': 'True', 'question2': 'Great Britain', 'question3': '30-40 km', 'question4': 'True', 'question5': '17.6%', 'question6': 'Shanghai', 'question7': '$4.5', 'question8': '$50.54', 'question9': '40.51 Mbps'}",4.623283333333333,60b6b40c9289145addeee2ff,102438,Little,Sun Nov 26 2023 15:26:03 GMT-0500 (Eastern Standard Time),1701030363772,12.524816666666666,InflateSail,1,first,8,27,Change in average orbit height during August 2017[11],Change in average orbit height during August 2017,147,11,8,0.4285714285714285,0.45,0.2720342576503753,0.2892627120018005,0.0,0.9874690771102904,1,0,0,0,1,1,1,1,1,0,1,1
Elections in Croatia / Parliamentary elections / Previous parliamentary elections,Thank you for allowing me to take the survey.,The seven main political faction's in Croatian parliamentary elections results from 1992-2016 in line graph form.  ,2,Sun Nov 26 2023 15:38:35 GMT-0500 (Eastern Standard Time),1701031115261,1,prolific/train-0-472392.png,True,English,"{'question1': 'False', 'question10': 'Skip', 'question11': 'Skip', 'question12': 'True', 'question2': 'Great Britain', 'question3': '30-40 km', 'question4': 'True', 'question5': '17.6%', 'question6': 'Shanghai', 'question7': '$4.5', 'question8': '$50.54', 'question9': '40.51 Mbps'}",4.623283333333333,60b6b40c9289145addeee2ff,101744,Little,Sun Nov 26 2023 15:26:03 GMT-0500 (Eastern Standard Time),1701030363772,12.524816666666666,Elections in Croatia,2,first,8,18,"Croatian parliamentary election results, 1992–2016; parties winning 10 or more seats in any one election shown individually","Graph of Croatian election results, using differently-colored lines",115,19,9,0.7058823529411765,0.59375,0.6693137884140015,0.7050553560256958,0.0,0.6120418310165405,1,0,0,0,1,1,1,1,1,0,1,1
Bishop Auckland / Demography,did not fully comprehend what you were looking for in first answer.  All other answers should be utilized,I would be looking for a pyramid not a bar graph,5,Sun Nov 26 2023 15:44:30 GMT-0500 (Eastern Standard Time),1701031470818,1,prolific/train-0-245143.png,False,english,"{'question1': 'True', 'question10': '$0.71', 'question11': '1 to 3', 'question12': 'False', 'question2': 'Great Britain', 'question3': '30-40 km', 'question4': 'True', 'question5': '25.3%', 'question6': 'Seoul', 'question7': '$4.5', 'question8': '$50.54', 'question9': '42.30 Mbps'}",6.0953,60085b4427f93e4408061e88,65944,Moderate,Sun Nov 26 2023 15:23:33 GMT-0500 (Eastern Standard Time),1701030213561,20.954283333333333,Bishop Auckland,0,first,6,11,"""Population pyramid"" showing the breakdown of the Bishop Auckland's population vs Age compared with the figures for County Durham and England and Wales. Source:[9]","A bar chart comparing dividing the population into 5-year intervals, and comparing the percentage of the population of Bishop Auckland made up by each interval with the figures for England and Wales and County Durham. The graph shows that the towns population is broadly in line with that nationally, with the exception that Bishop Auckland has a much lower proportion of people aged 20 to 24 years.",48,32,71,0.5128205128205128,0.5128205128205128,0.2642225623130798,0.2065201103687286,0.0,0.796863317489624,0,1,0,1,1,1,1,0,0,0,1,0
Ernie Toshack with the Australian cricket team in England in 1948 / Role,did not fully comprehend what you were looking for in first answer.  All other answers should be utilized,The pink bars are very low. There were only 3 instances where the test innings were signigantly higher than the first class innings.  Average is between approximately 4 runs to 18.  Average increased great deal towards last two months,2,Sun Nov 26 2023 15:44:30 GMT-0500 (Eastern Standard Time),1701031470818,1,prolific/train-0-24640.png,True,english,"{'question1': 'True', 'question10': '$0.71', 'question11': '1 to 3', 'question12': 'False', 'question2': 'Great Britain', 'question3': '30-40 km', 'question4': 'True', 'question5': '25.3%', 'question6': 'Seoul', 'question7': '$4.5', 'question8': '$50.54', 'question9': '42.30 Mbps'}",6.0953,60085b4427f93e4408061e88,332829,Moderate,Sun Nov 26 2023 15:23:33 GMT-0500 (Eastern Standard Time),1701030213561,20.954283333333333,Ernie Toshack with the Australian cricket team in England in 1948,1,first,6,42,"A chart showing Toshack's batting performance during the tour. The runs scored per innings are represented by the bars, with the red bars being Test innings and the pink bars being other first-class innings. The blue line is the average of the five most recent innings and the dots indicate not outs.[10]","Toshack started the season with five first-class innings outside the Tests, and all were less than 10 and four were less than five, none were not out. He then scored two scores between 15 and 20 in the Tests, with a score of four outside the Tests in between. After scores of 1 and zero not out in the next two tour matches, he scored 12 not out in his third and final Test innings. He then finished with two in a tour match. All of his efforts beyond ten were in Tests, and he passed ten in all three Test innings, two of these being not out.",234,60,119,0.7297297297297297,0.7368421052631579,0.668391227722168,0.4591818153858185,0.0,0.5854800939559937,0,1,0,1,1,1,1,0,0,0,1,0
"Safety of electronic cigarettes / Fires, explosions, and other battery-related malfunctions",did not fully comprehend what you were looking for in first answer.  All other answers should be utilized,"The caption is very adequate description of graph.  Would only add that in 2009-2012 low incident.  2014 to 2016 alarming rate of increased sales correlated to higher (3,000) incidents",1,Sun Nov 26 2023 15:44:30 GMT-0500 (Eastern Standard Time),1701031470818,1,prolific/train-0-407025.png,True,english,"{'question1': 'True', 'question10': '$0.71', 'question11': '1 to 3', 'question12': 'False', 'question2': 'Great Britain', 'question3': '30-40 km', 'question4': 'True', 'question5': '25.3%', 'question6': 'Seoul', 'question7': '$4.5', 'question8': '$50.54', 'question9': '42.30 Mbps'}",6.0953,60085b4427f93e4408061e88,202937,Moderate,Sun Nov 26 2023 15:23:33 GMT-0500 (Eastern Standard Time),1701030213561,20.954283333333333,Safety of electronic cigarettes,2,first,6,33,Graphic from a July 2016 United States Fire Administration (USFA) report entitled Electronic Cigarette Fires and Explosions in the United States 2009 – 2016.[326] There has been an increase in the number of severe and moderate injuries resulting from e-cigarette explosions and fires since 2014.[326] The USFA noted that this appears to correlate well with the e-cigarette sales trend.[326],Graphic from a July 2016 United States Fire Administration (USFA) report entitled Electronic Cigarette Fires and Explosions in the United States 2009 – 2016. There has been an increase in the number of severe and moderate injuries resulting from e-cigarette explosions and fires since 2014. The USFA noted that this appears to correlate well with the e-cigarette sales trend.,184,73,64,0.66,0.6666666666666666,0.2592797875404358,0.2600273489952087,0.0,0.982559084892273,0,1,0,1,1,1,1,0,0,0,1,0
Great Southern Group / Fall,,"The graph shows total and net assets by year from 1999 to 2008 in AU$000. Values are: 1999 total assets (ta) 175,000, net assets (na)100,000. 2000 ta 205,000, na 190,000; 2001 ta 200,000, na 197,000; 2002 ta 200,000, na 198,000; 2003 ta 250,000, na 205,000; 2004 ta 600,000, na 400,000; 2005 ta 1,000,000, na 760,000; 2006 ta 1,600,000, na 760,000; 2007 ta 1,700,000, na 760,000; 2008 ta 1,800,000, na 750,000.",3,Sun Nov 26 2023 15:50:23 GMT-0500 (Eastern Standard Time),1701031823851,1,prolific/train-0-105181.jpg,True,English,"{'question1': 'False', 'question10': '$0.71', 'question11': '1 to 3', 'question12': 'Skip', 'question2': 'Great Britain', 'question3': '30-40 km', 'question4': 'True', 'question5': '17.6%', 'question6': 'Shanghai', 'question7': '$7.5', 'question8': '$50.54', 'question9': '40.51 Mbps'}",4.404683333333334,63d04b491f107d5183af218f,379739,Moderate,Sun Nov 26 2023 15:30:18 GMT-0500 (Eastern Standard Time),1701030618034,20.09695,Great Southern Group,0,first,9,99,"Great Southern Group's assets. Net assets were ultimately limited by the company's ""unsustainable levels"" of debt.[4]","area graph with years on the x-axis, ranging from 1999 to 2008, and thousands of dollars on the y-axis. Two areas are shown: net assets climb until 2005 then stay at a similar level to 2008, below the 800 million dollar line; gross assets climb above net assets and are still increasing in 2008, where they are near the 1.8 billion dollar line",410,25,70,0.42,0.6888888888888889,0.3244651556015014,0.6493719816207886,0.0,0.3171207308769226,1,1,0,0,1,1,1,1,1,0,1,1
Normally distributed and uncorrelated does not imply independent / Examples / A symmetric example,,"The image is of a graph with small circles used to plot the data. Both the Y and X axis have the same units, ranging from -3 to 3, for 7 values. The overall visual image is of the letter X, which is fainter near the end values of -3 and 3, and very bold from -2 to 2.",3,Sun Nov 26 2023 15:50:23 GMT-0500 (Eastern Standard Time),1701031823851,1,prolific/train-0-236684.png,True,English,"{'question1': 'False', 'question10': '$0.71', 'question11': '1 to 3', 'question12': 'Skip', 'question2': 'Great Britain', 'question3': '30-40 km', 'question4': 'True', 'question5': '17.6%', 'question6': 'Shanghai', 'question7': '$7.5', 'question8': '$50.54', 'question9': '40.51 Mbps'}",4.404683333333334,63d04b491f107d5183af218f,159423,Moderate,Sun Nov 26 2023 15:30:18 GMT-0500 (Eastern Standard Time),1701030618034,20.09695,Normally distributed and uncorrelated does not imply independent,1,first,9,66,"Joint range of
  
    
      
        X
      
    
    {\displaystyle X}
  
 and
  
    
      
        Y
      
    
    {\displaystyle Y}
  
. Darker indicates higher value of the density function.","Two normally distributed, uncorrelated but dependent variables.",267,24,9,0.55,0.6666666666666666,0.4099160432815552,0.1579493880271911,0.0,0.2161377370357513,1,1,0,0,1,1,1,1,1,0,1,1
Cloture / United States / Procedure,,"This is a line graph showing three values: cloture invoked, votes on cloture and cloture motions filed. Data values from 1917-1964 are very small, usually zero, but never higher than 5. Starting in 1965 values increase with peaks in 1973, 1987, 1997 and 2007. Motions filed is always largest (or equal to other values) Votes on Cloture is next largest, and Cloture invoked is smallest. In the peak year, 2007, values were 140, 110 and 60. ",5,Sun Nov 26 2023 15:50:23 GMT-0500 (Eastern Standard Time),1701031823851,1,prolific/train-0-76637.png,True,English,"{'question1': 'False', 'question10': '$0.71', 'question11': '1 to 3', 'question12': 'Skip', 'question2': 'Great Britain', 'question3': '30-40 km', 'question4': 'True', 'question5': '17.6%', 'question6': 'Shanghai', 'question7': '$7.5', 'question8': '$50.54', 'question9': '40.51 Mbps'}",4.404683333333334,63d04b491f107d5183af218f,294267,Moderate,Sun Nov 26 2023 15:30:18 GMT-0500 (Eastern Standard Time),1701030618034,20.09695,Cloture,2,first,9,93,"Cloture voting in the United States Senate , 1917−2014.[43]","Number of cloture motions filed, voted on, and invoked by the U.S. Senate, 1917−2014.",439,13,18,0.490566037735849,0.5576923076923077,0.5029282569885254,0.5673117637634277,0.0,0.7984388470649719,1,1,0,0,1,1,1,1,1,0,1,1
Bootham Crescent / Records,,A chart showing York City's highest and average league attendance declining gradually between 1932 and 2015.,3,Sun Nov 26 2023 15:02:09 GMT-0600 (Central Standard Time),1701032529404,1,prolific/train-0-62319.png,True,English,"{'question1': 'False', 'question10': '$0.80', 'question11': '1 to 2', 'question12': 'False', 'question2': 'Great Britain', 'question3': '30-40 km', 'question4': 'True', 'question5': '17.6%', 'question6': 'Shanghai', 'question7': '$7.5', 'question8': '$50.54', 'question9': '40.51 Mbps'}",3.3428,62dc587c7c0dd665ce6c299c,54648,Very Well,Sun Nov 26 2023 14:54:15 GMT-0600 (Central Standard Time),1701032055816,7.893133333333333,Bootham Crescent,0,first,10,18,York City's highest and average league attendances at Bootham Crescent from the 1932–33 season,Graph showing the highest and average league attendances at the Bootham Crescent association football ground,108,15,15,0.7142857142857143,0.5277777777777778,0.6782772541046143,0.4472973942756653,0.0,0.6697953343391418,1,0,1,1,1,1,1,1,1,0,1,1
Bishop Auckland / Demography,,"A chart comparing the breakdown in population by age for the following regions: England and Wales, County Durham, and Bishop Auckland. All three regions have similar breakdowns across ages with all three peaking between the ages of 30-54.",4,Sun Nov 26 2023 15:02:09 GMT-0600 (Central Standard Time),1701032529404,1,prolific/train-0-245143.png,True,English,"{'question1': 'False', 'question10': '$0.80', 'question11': '1 to 2', 'question12': 'False', 'question2': 'Great Britain', 'question3': '30-40 km', 'question4': 'True', 'question5': '17.6%', 'question6': 'Shanghai', 'question7': '$7.5', 'question8': '$50.54', 'question9': '40.51 Mbps'}",3.3428,62dc587c7c0dd665ce6c299c,85654,Very Well,Sun Nov 26 2023 14:54:15 GMT-0600 (Central Standard Time),1701032055816,7.893133333333333,Bishop Auckland,1,first,10,43,"""Population pyramid"" showing the breakdown of the Bishop Auckland's population vs Age compared with the figures for County Durham and England and Wales. Source:[9]","A bar chart comparing dividing the population into 5-year intervals, and comparing the percentage of the population of Bishop Auckland made up by each interval with the figures for England and Wales and County Durham. The graph shows that the towns population is broadly in line with that nationally, with the exception that Bishop Auckland has a much lower proportion of people aged 20 to 24 years.",238,32,71,0.7045454545454546,0.875,0.7350649833679199,0.7512217164039612,0.0,0.796863317489624,1,0,1,1,1,1,1,1,1,0,1,1
InflateSail / Altitude loss,,A chart showing the altitude of InflateSail declining gradually from 470 km to 390 km during August 2017.,1,Sun Nov 26 2023 15:02:09 GMT-0600 (Central Standard Time),1701032529404,1,prolific/train-0-183840.jpg,True,English,"{'question1': 'False', 'question10': '$0.80', 'question11': '1 to 2', 'question12': 'False', 'question2': 'Great Britain', 'question3': '30-40 km', 'question4': 'True', 'question5': '17.6%', 'question6': 'Shanghai', 'question7': '$7.5', 'question8': '$50.54', 'question9': '40.51 Mbps'}",3.3428,62dc587c7c0dd665ce6c299c,43256,Very Well,Sun Nov 26 2023 14:54:15 GMT-0600 (Central Standard Time),1701032055816,7.893133333333333,InflateSail,2,first,10,19,Change in average orbit height during August 2017[11],Change in average orbit height during August 2017,105,11,8,0.5,0.5294117647058824,0.4321853220462799,0.450278103351593,0.0,0.9874690771102904,1,0,1,1,1,1,1,1,1,0,1,1
InflateSail / Altitude loss,,There is a downward trajectory line right left to right. The x-axis or height indicates the mean height in kilometers and the y-axis represents a specific time.,2,Sun Nov 26 2023 16:02:40 GMT-0500 (Eastern Standard Time),1701032560528,1,prolific/train-0-183840.jpg,True,English,"{'question1': 'False', 'question10': 'Skip', 'question11': '1 to 3', 'question12': 'False', 'question2': 'USA', 'question3': '30-40 km', 'question4': 'True', 'question5': '17.6%', 'question6': 'Shanghai', 'question7': '$6.1', 'question8': '$50.54', 'question9': '40.51 Mbps'}",3.087766666666666,656239fc8b1bd5f742709eb0,63004,Very Well,Sun Nov 26 2023 15:51:54 GMT-0500 (Eastern Standard Time),1701031914542,10.766433333333334,InflateSail,0,first,9,29,Change in average orbit height during August 2017[11],Change in average orbit height during August 2017,160,11,8,0.3333333333333333,0.3529411764705882,0.2147552520036697,0.2376864701509475,0.0,0.9874690771102904,1,0,0,1,0,1,1,1,1,1,1,1
InflateSail / Altitude loss,,There is a downward trajectory line left to right starting at 480km to 390km. The x-axis or height indicates the mean height in kilometers and the y-axis represents a specific time in August 2017.,2,Sun Nov 26 2023 16:02:40 GMT-0500 (Eastern Standard Time),1701032560528,1,prolific/train-0-183840.jpg,True,English,"{'question1': 'False', 'question10': 'Skip', 'question11': '1 to 3', 'question12': 'False', 'question2': 'USA', 'question3': '30-40 km', 'question4': 'True', 'question5': '17.6%', 'question6': 'Shanghai', 'question7': '$6.1', 'question8': '$50.54', 'question9': '40.51 Mbps'}",3.087766666666666,656239fc8b1bd5f742709eb0,28892,Very Well,Sun Nov 26 2023 15:51:54 GMT-0500 (Eastern Standard Time),1701031914542,10.766433333333334,InflateSail,0,second,9,36,Change in average orbit height during August 2017[11],Change in average orbit height during August 2017,196,11,8,0.45,0.4736842105263157,0.492262065410614,0.5297049880027771,0.0,0.9874690771102904,1,0,0,1,0,1,1,1,1,1,1,1
Federal political financing in Canada / Private funding / Cost of fundraising,,There are three bars that each represent a different political party in Canada. The height of the bar represents the amount in millions. The Conversative Party has raised $17.7 million dollars with $7 million in fundraising expenses. The Liberal Party has raised $9.06 million dollars with $2 million in fundraising expenses. The New Democratic Party has raised $4.01 million dollars with $2 million in fundraising expenses. The total of all three parties combined is $30.77 million dollars raised with $11.19 million being expenses.,3,Sun Nov 26 2023 16:02:40 GMT-0500 (Eastern Standard Time),1701032560528,1,prolific/train-0-14152.png,True,English,"{'question1': 'False', 'question10': 'Skip', 'question11': '1 to 3', 'question12': 'False', 'question2': 'USA', 'question3': '30-40 km', 'question4': 'True', 'question5': '17.6%', 'question6': 'Shanghai', 'question7': '$6.1', 'question8': '$50.54', 'question9': '40.51 Mbps'}",3.087766666666666,656239fc8b1bd5f742709eb0,143549,Very Well,Sun Nov 26 2023 15:51:54 GMT-0500 (Eastern Standard Time),1701031914542,10.766433333333334,Federal political financing in Canada,1,first,9,97,Party-level fundraising costs vs. party-level contributions raised at top three Canadian federal parties in 2009 (source: Elections Canada[4]),Party-level fundraising costs vs. party-level contributions raised at top three Canadian federal parties in 2009,533,24,15,0.5869565217391305,0.65,0.7174862623214722,0.7025758028030396,0.0,0.9816362857818604,1,0,0,1,0,1,1,1,1,1,1,1
European debt crisis / Evolution of the crisis / Portugal,,"The graph represents Portugal's Debt in percent of GDP vs Eurozone's average. There is a data point for every year from 1999 to 2019. Portugal starts off at 51%, lower than Eurozone. Between 2006-2008, both Portugal and Eurozone are about the same, hovering near 70%. However, Portugal rises beyond Eurozone to a peak of 130 in 2013, and has since dropped by 1 every year. Eurozone has stayed steady below 100 and is dropping consistently since 2013. ",4,Sun Nov 26 2023 16:02:40 GMT-0500 (Eastern Standard Time),1701032560528,1,prolific/train-0-191651.png,True,English,"{'question1': 'False', 'question10': 'Skip', 'question11': '1 to 3', 'question12': 'False', 'question2': 'USA', 'question3': '30-40 km', 'question4': 'True', 'question5': '17.6%', 'question6': 'Shanghai', 'question7': '$6.1', 'question8': '$50.54', 'question9': '40.51 Mbps'}",3.087766666666666,656239fc8b1bd5f742709eb0,156540,Very Well,Sun Nov 26 2023 15:51:54 GMT-0500 (Eastern Standard Time),1701031914542,10.766433333333334,European debt crisis,2,first,9,92,Debt of Portugal compared to eurozone average since 1999,Portuguese debt compared to eurozone average,451,9,6,0.5333333333333333,0.4,0.7741143703460693,0.7132707238197327,0.0,0.933645725250244,1,0,0,1,0,1,1,1,1,1,1,1
Federal political financing in Canada / Private funding / Cost of fundraising,,"There are a total of eighth bars represented as four in the front and four directly behind. The four bars in the front represent fundraising expenses, and the four bars in the back represent subsidized contributions raised. Each pairing represents a party: conservative, liberal, and new democratic. The last pairing in the total of the three parties. The increment is by the $5 million, and the maximum is $30 million.",1,Sun Nov 26 2023 13:06:14 GMT-0800 (Pacific Standard Time),1701032774622,1,prolific/train-0-14152.png,False,Taishanese Chinese,"{'question1': 'False', 'question10': '$0.71', 'question11': '1 to 2', 'question12': 'False', 'question2': 'Great Britain', 'question3': '30-40 km', 'question4': 'True', 'question5': '17.6%', 'question6': 'Shanghai', 'question7': '$4.5', 'question8': '$50.54', 'question9': '40.51 Mbps'}",3.237966666666667,655f8cc7380061ec28e9efcc,125997,Little,Sun Nov 26 2023 12:56:31 GMT-0800 (Pacific Standard Time),1701032191392,9.7205,Federal political financing in Canada,0,first,11,82,Party-level fundraising costs vs. party-level contributions raised at top three Canadian federal parties in 2009 (source: Elections Canada[4]),Party-level fundraising costs vs. party-level contributions raised at top three Canadian federal parties in 2009,419,24,15,0.5454545454545454,0.5641025641025641,0.6036467552185059,0.5848658084869385,0.0,0.9816362857818604,1,1,1,1,1,1,1,1,1,0,1,1
Great Southern Group / Fall,,"This is a graph that shows the yearly total values: total asset and net assets. It is in increments of 200,000, with the maximum being 2,000,000.",3,Sun Nov 26 2023 13:06:14 GMT-0800 (Pacific Standard Time),1701032774622,1,prolific/train-0-105181.jpg,False,Taishanese Chinese,"{'question1': 'False', 'question10': '$0.71', 'question11': '1 to 2', 'question12': 'False', 'question2': 'Great Britain', 'question3': '30-40 km', 'question4': 'True', 'question5': '17.6%', 'question6': 'Shanghai', 'question7': '$4.5', 'question8': '$50.54', 'question9': '40.51 Mbps'}",3.237966666666667,655f8cc7380061ec28e9efcc,138218,Little,Sun Nov 26 2023 12:56:31 GMT-0800 (Pacific Standard Time),1701032191392,9.7205,Great Southern Group,1,first,11,30,"Great Southern Group's assets. Net assets were ultimately limited by the company's ""unsustainable levels"" of debt.[4]","area graph with years on the x-axis, ranging from 1999 to 2008, and thousands of dollars on the y-axis. Two areas are shown: net assets climb until 2005 then stay at a similar level to 2008, below the 800 million dollar line; gross assets climb above net assets and are still increasing in 2008, where they are near the 1.8 billion dollar line",145,25,70,0.5789473684210527,0.8055555555555556,0.2392946481704712,0.599381685256958,0.0,0.3171207308769226,1,1,1,1,1,1,1,1,1,0,1,1
Green marketing / Adoptability / LOHAS,,"This is a pie chart with five categories: LOHAs, naturalites, drifters, conventionals, and unconcerned.",1,Sun Nov 26 2023 13:06:14 GMT-0800 (Pacific Standard Time),1701032774622,1,prolific/train-0-480642.png,True,Taishanese Chinese,"{'question1': 'False', 'question10': '$0.71', 'question11': '1 to 2', 'question12': 'False', 'question2': 'Great Britain', 'question3': '30-40 km', 'question4': 'True', 'question5': '17.6%', 'question6': 'Shanghai', 'question7': '$4.5', 'question8': '$50.54', 'question9': '40.51 Mbps'}",3.237966666666667,655f8cc7380061ec28e9efcc,48717,Little,Sun Nov 26 2023 12:56:31 GMT-0800 (Pacific Standard Time),1701032191392,9.7205,Green marketing,2,first,11,20,The distribution of the different types of LOHAS.[26],The distribution of the different types of LOHAS.,103,12,9,0.5588235294117647,0.6333333333333333,0.6188894510269165,0.6169984340667725,0.0,0.9695470929145812,1,1,1,1,1,1,1,1,1,0,1,1
Bootham Crescent / Records,That test on the graphs was fun.,A line graph of the York City F.C.'S LEAGUE attendances of Bootham Crescent from 1932 broken down in years,5,Sun Nov 26 2023 15:11:10 GMT-0600 (Central Standard Time),1701033070440,1,prolific/train-0-62319.png,True,English,"{'question1': 'False', 'question10': '$0.71', 'question11': '1 to 3', 'question12': 'False', 'question2': 'Great Britain', 'question3': '30-40 km', 'question4': 'True', 'question5': '25.3%', 'question6': 'Shanghai', 'question7': '$7.5', 'question8': '$50.54', 'question9': '40.51 Mbps'}",7.268133333333333,5fc30c35704ddd267cc9123f,95321,Little,Sun Nov 26 2023 14:58:51 GMT-0600 (Central Standard Time),1701032331637,12.313383333333332,Bootham Crescent,0,first,9,21,York City's highest and average league attendances at Bootham Crescent from the 1932–33 season,Graph showing the highest and average league attendances at the Bootham Crescent association football ground,106,15,15,0.65,0.5641025641025641,0.7846936583518982,0.6283167600631714,0.0,0.6697953343391418,1,1,0,1,1,1,1,0,1,0,1,1
Cloture / United States / Procedure,That test on the graphs was fun.,a line graph broken down by years showing the closure voting from the us senate from 1917 to 2014,3,Sun Nov 26 2023 15:11:10 GMT-0600 (Central Standard Time),1701033070440,1,prolific/train-0-76637.png,True,English,"{'question1': 'False', 'question10': '$0.71', 'question11': '1 to 3', 'question12': 'False', 'question2': 'Great Britain', 'question3': '30-40 km', 'question4': 'True', 'question5': '25.3%', 'question6': 'Shanghai', 'question7': '$7.5', 'question8': '$50.54', 'question9': '40.51 Mbps'}",7.268133333333333,5fc30c35704ddd267cc9123f,44823,Little,Sun Nov 26 2023 14:58:51 GMT-0600 (Central Standard Time),1701032331637,12.313383333333332,Cloture,1,first,9,19,"Cloture voting in the United States Senate , 1917−2014.[43]","Number of cloture motions filed, voted on, and invoked by the U.S. Senate, 1917−2014.",97,13,18,0.5526315789473685,0.7428571428571429,0.5865060687065125,0.5467642545700073,0.0,0.7984388470649719,1,1,0,1,1,1,1,0,1,0,1,1
Elections in Croatia / Parliamentary elections / Previous parliamentary elections,That test on the graphs was fun.,a line graph showing the different elections in Croatia from 1992 to 2016,4,Sun Nov 26 2023 15:11:10 GMT-0600 (Central Standard Time),1701033070440,1,prolific/train-0-472392.png,True,English,"{'question1': 'False', 'question10': '$0.71', 'question11': '1 to 3', 'question12': 'False', 'question2': 'Great Britain', 'question3': '30-40 km', 'question4': 'True', 'question5': '25.3%', 'question6': 'Shanghai', 'question7': '$7.5', 'question8': '$50.54', 'question9': '40.51 Mbps'}",7.268133333333333,5fc30c35704ddd267cc9123f,38531,Little,Sun Nov 26 2023 14:58:51 GMT-0600 (Central Standard Time),1701032331637,12.313383333333332,Elections in Croatia,2,first,9,13,"Croatian parliamentary election results, 1992–2016; parties winning 10 or more seats in any one election shown individually","Graph of Croatian election results, using differently-colored lines",73,19,9,0.7666666666666667,0.5862068965517241,0.6760852932929993,0.8639086484909058,0.0,0.6120418310165405,1,1,0,1,1,1,1,0,1,0,1,1
InflateSail / Altitude loss,,"Chart showing the change in average orbit height during August 2017. There is a decline over the course of the month, starting at 471 km at the beginning of the month and curving downward, ending at 390 km at the end of the month. ",4,Sun Nov 26 2023 16:21:10 GMT-0500 (Eastern Standard Time),1701033670362,1,prolific/train-0-183840.jpg,True,English,"{'question1': 'False', 'question10': '$0.71', 'question11': 'Skip', 'question12': 'False', 'question2': 'Great Britain', 'question3': '30-40 km', 'question4': 'True', 'question5': '17.6%', 'question6': 'Shanghai', 'question7': '$4.5', 'question8': '$50.54', 'question9': '40.51 Mbps'}",5.8929,653059c34496d1fa31c80956,171930,Moderate,Sun Nov 26 2023 16:01:46 GMT-0500 (Eastern Standard Time),1701032506838,19.39206666666667,InflateSail,0,first,10,48,Change in average orbit height during August 2017[11],Change in average orbit height during August 2017,231,11,8,0.6,0.6363636363636364,0.8372923135757446,0.8477319478988647,0.0,0.9874690771102904,1,1,0,1,1,1,1,1,1,0,1,1
European debt crisis contagion,,"Line chart depicting Sovereign CDS loss of confidence in creditworthiness of 11 EU countries. There is pronounced spike in Greece's creditworthiness, climbing from $500,000 in July 2011 to 25 million by February 2012. Greece's creditworthiness plummets to 6 million in April 2012 and bounces back up to 17 million by January 2013.",4,Sun Nov 26 2023 16:21:10 GMT-0500 (Eastern Standard Time),1701033670362,1,prolific/train-0-359850.png,True,English,"{'question1': 'False', 'question10': '$0.71', 'question11': 'Skip', 'question12': 'False', 'question2': 'Great Britain', 'question3': '30-40 km', 'question4': 'True', 'question5': '17.6%', 'question6': 'Shanghai', 'question7': '$4.5', 'question8': '$50.54', 'question9': '40.51 Mbps'}",5.8929,653059c34496d1fa31c80956,400708,Moderate,Sun Nov 26 2023 16:01:46 GMT-0500 (Eastern Standard Time),1701032506838,19.39206666666667,European debt crisis contagion,1,first,10,59,"Sovereign CDS showing a temporary loss of confidence in creditworthiness of certain EU countries. The left axis is in basis points; a level of 1,000 means it costs $1 million to protect $10 million of debt for five years.",Sovereign credit default swaps for EU countries in 2010-2013,330,44,9,0.6875,0.5434782608695652,0.7016785740852356,0.3568044900894165,0.0,0.3145678043365478,1,1,0,1,1,1,1,1,1,0,1,1
Normally distributed and uncorrelated does not imply independent / Examples / A symmetric example,,"Density chart illustrating Joint range of X {\displaystyle X} and Y {\displaystyle Y}. Both X & Y axis gets darker and denser as it gets closer to 0,0, creating the appearance of an X at the center (intersecting lines)",5,Sun Nov 26 2023 16:21:10 GMT-0500 (Eastern Standard Time),1701033670362,1,prolific/train-0-236684.png,True,English,"{'question1': 'False', 'question10': '$0.71', 'question11': 'Skip', 'question12': 'False', 'question2': 'Great Britain', 'question3': '30-40 km', 'question4': 'True', 'question5': '17.6%', 'question6': 'Shanghai', 'question7': '$4.5', 'question8': '$50.54', 'question9': '40.51 Mbps'}",5.8929,653059c34496d1fa31c80956,140244,Moderate,Sun Nov 26 2023 16:01:46 GMT-0500 (Eastern Standard Time),1701032506838,19.39206666666667,Normally distributed and uncorrelated does not imply independent,2,first,10,47,"Joint range of
  
    
      
        X
      
    
    {\displaystyle X}
  
 and
  
    
      
        Y
      
    
    {\displaystyle Y}
  
. Darker indicates higher value of the density function.","Two normally distributed, uncorrelated but dependent variables.",218,24,9,0.75,0.4358974358974359,0.7558504343032837,0.279926598072052,0.0,0.2161377370357513,1,1,0,1,1,1,1,1,1,0,1,1
Anatomy of an Epidemic / Synopsis / Magic bullets,,The image included on this page contains a bar graph depicting a comparison of data from 1987 and 2003. The y-axis shows the number of recipients that were described in the caption and spans from 0 to 6 million recipients. The x-axis shows the amount of payments the recipients received and spans from 1 to 5 payments. The bar graph shows that the number of both the recipients and payments drastically increased in 2003 in comparison to 1987.,2,Sun Nov 26 2023 16:41:39 GMT-0500 (Eastern Standard Time),1701034899233,1,prolific/train-0-29695.png,True,English,"{'question1': 'False', 'question10': '$0.71', 'question11': '1 to 4', 'question12': 'False', 'question2': 'Great Britain', 'question3': '30-40 km', 'question4': 'True', 'question5': '17.6%', 'question6': 'Shanghai', 'question7': 'Skip', 'question8': '$50.54', 'question9': '40.51 Mbps'}",12.610166666666666,60aae4f5fb23c081f5624ebb,612309,Well,Sun Nov 26 2023 15:55:53 GMT-0500 (Eastern Standard Time),1701032153622,45.76018333333333,Anatomy of an Epidemic,0,first,10,82,"Number of Americans who received SSDI and SSI for mental disability in 1987 (blue) when Eli Lilly and Company introduced the antidepressive drug Prozac, compared to 2003 (red).",Chart showing increase (in red) over baseline (in blue) between 1987 and 2003,443,34,17,0.625,0.6578947368421053,0.19694584608078,0.4338900744915008,0.0,0.0694750547409057,1,1,0,1,1,1,1,1,1,0,1,1
Anatomy of an Epidemic / Synopsis / Magic bullets,,"The image included on this page contains a bar graph depicting a comparison of data from 1987 and 2003. The y-axis shows the number of recipients that were described in the caption, and spans from 0 to 6 million recipients. The x-axis shows the amount of payments the recipients received and spans from 1 to 5 payments. 500,000 recipients received 1 payment in 1987 while 1.5 million recipients received 1 payment in 2003. 2.5 million recipients received 2 payments in 1987 while 4 million recipients received 2 payments in 2003. Just under 3.5 million recipients received 3 payments in 1987 while just under 6 million recipients received 3 payments in 2003. Under 500,000 recipients received 4 payments in both 1987 and 2003, though more recipients received the 4 payments in 2003 than in 1987. Just over 3 million recipients received 5 payments in 1987 while 5.5 million recipients received payments in 2003.",2,Sun Nov 26 2023 16:41:39 GMT-0500 (Eastern Standard Time),1701034899233,1,prolific/train-0-29695.png,True,English,"{'question1': 'False', 'question10': '$0.71', 'question11': '1 to 4', 'question12': 'False', 'question2': 'Great Britain', 'question3': '30-40 km', 'question4': 'True', 'question5': '17.6%', 'question6': 'Shanghai', 'question7': 'Skip', 'question8': '$50.54', 'question9': '40.51 Mbps'}",12.610166666666666,60aae4f5fb23c081f5624ebb,592682,Well,Sun Nov 26 2023 15:55:53 GMT-0500 (Eastern Standard Time),1701032153622,45.76018333333333,Anatomy of an Epidemic,0,second,10,162,"Number of Americans who received SSDI and SSI for mental disability in 1987 (blue) when Eli Lilly and Company introduced the antidepressive drug Prozac, compared to 2003 (red).",Chart showing increase (in red) over baseline (in blue) between 1987 and 2003,910,34,17,0.5961538461538461,0.5813953488372093,0.283595472574234,0.25115767121315,0.0,0.0694750547409057,1,1,0,1,1,1,1,1,1,0,1,1
European debt crisis / Evolution of the crisis / Portugal,,"The image on this page features a line graph. The y-axis shows the Debt in Percent of GDP ranging from 0 to 150% in increments of 50. The x-axis shows Years from 1999 to 2019. The graph shows Portugal experienced a large increase in comparison to the Eurozone average starting in 2008 until 2014. After Portugal's peak debt percentage in 2014, the debt percentage has steadily started to decline.",1,Sun Nov 26 2023 16:41:39 GMT-0500 (Eastern Standard Time),1701034899233,1,prolific/train-0-191651.png,True,English,"{'question1': 'False', 'question10': '$0.71', 'question11': '1 to 4', 'question12': 'False', 'question2': 'Great Britain', 'question3': '30-40 km', 'question4': 'True', 'question5': '17.6%', 'question6': 'Shanghai', 'question7': 'Skip', 'question8': '$50.54', 'question9': '40.51 Mbps'}",12.610166666666666,60aae4f5fb23c081f5624ebb,344077,Well,Sun Nov 26 2023 15:55:53 GMT-0500 (Eastern Standard Time),1701032153622,45.76018333333333,European debt crisis,1,first,10,77,Debt of Portugal compared to eurozone average since 1999,Portuguese debt compared to eurozone average,396,9,6,0.5454545454545454,0.4090909090909091,0.8262706995010376,0.7793368101119995,0.0,0.933645725250244,1,1,0,1,1,1,1,1,1,0,1,1
European debt crisis / Evolution of the crisis / Portugal,,"The image on this page features a line graph. The y-axis shows the Debt in Percent of GDP, ranging from 0 to 150%, in increments of 50. The x-axis shows Years from 1999 to 2019. The graph shows Portugal experienced a large increase in comparison to the Eurozone average starting in 2008 until 2014. After Portugal's peak debt percentage in 2014, the debt percentage has steadily started to decline.",1,Sun Nov 26 2023 16:41:39 GMT-0500 (Eastern Standard Time),1701034899233,1,prolific/train-0-191651.png,True,English,"{'question1': 'False', 'question10': '$0.71', 'question11': '1 to 4', 'question12': 'False', 'question2': 'Great Britain', 'question3': '30-40 km', 'question4': 'True', 'question5': '17.6%', 'question6': 'Shanghai', 'question7': 'Skip', 'question8': '$50.54', 'question9': '40.51 Mbps'}",12.610166666666666,60aae4f5fb23c081f5624ebb,19887,Well,Sun Nov 26 2023 15:55:53 GMT-0500 (Eastern Standard Time),1701032153622,45.76018333333333,European debt crisis,1,second,10,79,Debt of Portugal compared to eurozone average since 1999,Portuguese debt compared to eurozone average,398,9,6,0.5454545454545454,0.4090909090909091,0.8146799802780151,0.7652448415756226,0.0,0.933645725250244,1,1,0,1,1,1,1,1,1,0,1,1
Bishop Auckland / Demography,,The image on this page features a bar graph comparing the three counties listed in the caption. The y-axis show the Percentage of the Population while the x-axis shows the Age Groups. The percentages range from 0 to 9% in increments of 1. The Age Groups range from 0 to 90+ in increments of 4 years.,3,Sun Nov 26 2023 16:41:39 GMT-0500 (Eastern Standard Time),1701034899233,1,prolific/train-0-245143.png,True,English,"{'question1': 'False', 'question10': '$0.71', 'question11': '1 to 4', 'question12': 'False', 'question2': 'Great Britain', 'question3': '30-40 km', 'question4': 'True', 'question5': '17.6%', 'question6': 'Shanghai', 'question7': 'Skip', 'question8': '$50.54', 'question9': '40.51 Mbps'}",12.610166666666666,60aae4f5fb23c081f5624ebb,194556,Well,Sun Nov 26 2023 15:55:53 GMT-0500 (Eastern Standard Time),1701032153622,45.76018333333333,Bishop Auckland,2,first,10,61,"""Population pyramid"" showing the breakdown of the Bishop Auckland's population vs Age compared with the figures for County Durham and England and Wales. Source:[9]","A bar chart comparing dividing the population into 5-year intervals, and comparing the percentage of the population of Bishop Auckland made up by each interval with the figures for England and Wales and County Durham. The graph shows that the towns population is broadly in line with that nationally, with the exception that Bishop Auckland has a much lower proportion of people aged 20 to 24 years.",299,32,71,0.5319148936170213,0.6363636363636364,0.4390448629856109,0.548801064491272,0.0,0.796863317489624,1,1,0,1,1,1,1,1,1,0,1,1
Tiilerilaaq / Population,,A bar graph showing the declining population,1,Sun Nov 26 2023 10:24:27 GMT-0600 (Central Standard Time),1701015867033,1,prolific/train-0-448110.png,True,english,"{'question1': 'False', 'question10': '$0.71', 'question11': '1 to 1', 'question12': 'False', 'question2': 'Great Britain', 'question3': '30-40 km', 'question4': 'True', 'question5': '17.6%', 'question6': 'Shanghai', 'question7': '$4.5', 'question8': '$50.54', 'question9': '40.51 Mbps'}",3.733383333333333,610971ac8159690397a047c5,27984,Well,Sun Nov 26 2023 10:16:23 GMT-0600 (Central Standard Time),1701015383771,8.054366666666667,Tiilerilaaq,0,first,10,7,Tiilerilaaq population growth dynamics in the last two decades. Source: Statistics Greenland[4],Tiilerilaaq population dynamics,44,17,3,0.5666666666666667,0.6086956521739131,0.3917518258094787,0.4919290542602539,0.0,0.6924266815185547,1,1,0,1,1,1,1,1,1,0,1,1
Ikerasaarsuk / Population,,A bar graph showing population growth increasing over time with a few periods of modest decreasing,4,Sun Nov 26 2023 10:24:27 GMT-0600 (Central Standard Time),1701015867033,1,prolific/train-0-370954.png,True,english,"{'question1': 'False', 'question10': '$0.71', 'question11': '1 to 1', 'question12': 'False', 'question2': 'Great Britain', 'question3': '30-40 km', 'question4': 'True', 'question5': '17.6%', 'question6': 'Shanghai', 'question7': '$4.5', 'question8': '$50.54', 'question9': '40.51 Mbps'}",3.733383333333333,610971ac8159690397a047c5,65896,Well,Sun Nov 26 2023 10:16:23 GMT-0600 (Central Standard Time),1701015383771,8.054366666666667,Ikerasaarsuk,1,first,10,16,Ikerasaarsuk population growth dynamics in the last two decades. Source: Statistics Greenland[4],Ikerasaarsuk population dynamics,98,17,3,0.5625,0.6,0.4370597600936889,0.4440165162086487,0.0,0.7536988854408264,1,1,0,1,1,1,1,1,1,0,1,1
Ernie Toshack with the Australian cricket team in England in 1948 / Role,,"A combination of different graphs on a single chart, including red and pink bars, a blue line, and blue dots. ",5,Sun Nov 26 2023 10:24:27 GMT-0600 (Central Standard Time),1701015867033,1,prolific/train-0-24640.png,True,english,"{'question1': 'False', 'question10': '$0.71', 'question11': '1 to 1', 'question12': 'False', 'question2': 'Great Britain', 'question3': '30-40 km', 'question4': 'True', 'question5': '17.6%', 'question6': 'Shanghai', 'question7': '$4.5', 'question8': '$50.54', 'question9': '40.51 Mbps'}",3.733383333333333,610971ac8159690397a047c5,66187,Well,Sun Nov 26 2023 10:16:23 GMT-0600 (Central Standard Time),1701015383771,8.054366666666667,Ernie Toshack with the Australian cricket team in England in 1948,2,first,10,24,"A chart showing Toshack's batting performance during the tour. The runs scored per innings are represented by the bars, with the red bars being Test innings and the pink bars being other first-class innings. The blue line is the average of the five most recent innings and the dots indicate not outs.[10]","Toshack started the season with five first-class innings outside the Tests, and all were less than 10 and four were less than five, none were not out. He then scored two scores between 15 and 20 in the Tests, with a score of four outside the Tests in between. After scores of 1 and zero not out in the next two tour matches, he scored 12 not out in his third and final Test innings. He then finished with two in a tour match. All of his efforts beyond ten were in Tests, and he passed ten in all three Test innings, two of these being not out.",110,60,119,0.696969696969697,0.6571428571428571,0.3204512596130371,-0.0168921314179897,0.0,0.5854800939559937,1,1,0,1,1,1,1,1,1,0,1,1
Tiilerilaaq / Population,,Yearly population of Tiilerilaaq from 1991 to 2010.,1,Sun Nov 26 2023 11:38:31 GMT-0500 (Eastern Standard Time),1701016711804,1,prolific/train-0-448110.png,True,English,"{'question1': 'False', 'question10': 'Skip', 'question11': 'Skip', 'question12': 'False', 'question2': 'Great Britain', 'question3': '30-40 km', 'question4': 'True', 'question5': '17.6%', 'question6': 'Shanghai', 'question7': 'Skip', 'question8': '$50.54', 'question9': '40.51 Mbps'}",11.0943,65636a47b9f8c11aaf645ce9,81963,Very Well,Sun Nov 26 2023 11:19:28 GMT-0500 (Eastern Standard Time),1701015568310,19.05823333333333,Tiilerilaaq,0,first,9,9,Tiilerilaaq population growth dynamics in the last two decades. Source: Statistics Greenland[4],Tiilerilaaq population dynamics,51,17,3,0.4705882352941176,0.6,0.5625230073928833,0.7478767037391663,0.0,0.6924266815185547,1,0,0,1,1,1,1,1,1,0,1,1
"Safety of electronic cigarettes / Fires, explosions, and other battery-related malfunctions",,Data from 2009 to 2016 which shows a positive correlation between the number of injuries from e-cigarette explosions and fires and e-cigarette sales trend.,2,Sun Nov 26 2023 11:38:31 GMT-0500 (Eastern Standard Time),1701016711804,1,prolific/train-0-407025.png,True,English,"{'question1': 'False', 'question10': 'Skip', 'question11': 'Skip', 'question12': 'False', 'question2': 'Great Britain', 'question3': '30-40 km', 'question4': 'True', 'question5': '17.6%', 'question6': 'Shanghai', 'question7': 'Skip', 'question8': '$50.54', 'question9': '40.51 Mbps'}",11.0943,65636a47b9f8c11aaf645ce9,128796,Very Well,Sun Nov 26 2023 11:19:28 GMT-0500 (Eastern Standard Time),1701015568310,19.05823333333333,Safety of electronic cigarettes,1,first,9,25,Graphic from a July 2016 United States Fire Administration (USFA) report entitled Electronic Cigarette Fires and Explosions in the United States 2009 – 2016.[326] There has been an increase in the number of severe and moderate injuries resulting from e-cigarette explosions and fires since 2014.[326] The USFA noted that this appears to correlate well with the e-cigarette sales trend.[326],Graphic from a July 2016 United States Fire Administration (USFA) report entitled Electronic Cigarette Fires and Explosions in the United States 2009 – 2016. There has been an increase in the number of severe and moderate injuries resulting from e-cigarette explosions and fires since 2014. The USFA noted that this appears to correlate well with the e-cigarette sales trend.,155,73,64,0.625,0.6666666666666666,0.8047558665275574,0.8120869398117065,0.0,0.982559084892273,1,0,0,1,1,1,1,1,1,0,1,1
Ikerasaarsuk / Population,,This bar graph shows the population growth in Ikerasaarsuk from 1991 to 2010. There was a spike in growth in the late 1990s.,1,Sun Nov 26 2023 11:38:31 GMT-0500 (Eastern Standard Time),1701016711804,1,prolific/train-0-370954.png,True,English,"{'question1': 'False', 'question10': 'Skip', 'question11': 'Skip', 'question12': 'False', 'question2': 'Great Britain', 'question3': '30-40 km', 'question4': 'True', 'question5': '17.6%', 'question6': 'Shanghai', 'question7': 'Skip', 'question8': '$50.54', 'question9': '40.51 Mbps'}",11.0943,65636a47b9f8c11aaf645ce9,97799,Very Well,Sun Nov 26 2023 11:19:28 GMT-0500 (Eastern Standard Time),1701015568310,19.05823333333333,Ikerasaarsuk,2,first,9,25,Ikerasaarsuk population growth dynamics in the last two decades. Source: Statistics Greenland[4],Ikerasaarsuk population dynamics,124,17,3,0.5428571428571428,0.5172413793103449,0.6909271478652954,0.7053526043891907,0.0,0.7536988854408264,1,0,0,1,1,1,1,1,1,0,1,1
Tiilerilaaq / Population,,"In 1991, the population growth 209. In 1992, it was 181. In 1992, it was 179. In 1994, it was 192. In 1995, it was 176. In 1996, it was 163. In 1997, it was 153. In 1998, it was 155. In 1999, it was 155. In 2000, it was 146. In 2001, it was 152. In 2002, it was 155. In 2003, it was 151. In 2004, it was 160. In 2005, it was 148. In 2006, it was 165. In 2007, it was 138. In 2008, it was 146. In 2009, it was 132. In 2010, it was 134.",2,Sun Nov 26 2023 11:44:26 GMT-0500 (Eastern Standard Time),1701017066982,1,prolific/train-0-448110.png,True,English,"{'question1': 'False', 'question10': '$0.71', 'question11': 'Skip', 'question12': 'False', 'question2': 'Great Britain', 'question3': '30-40 km', 'question4': 'True', 'question5': '17.6%', 'question6': 'Shanghai', 'question7': '$7.5', 'question8': '$50.54', 'question9': '40.51 Mbps'}",5.725366666666667,65107c535bd8683fe9bbe22d,249531,Well,Sun Nov 26 2023 11:24:48 GMT-0500 (Eastern Standard Time),1701015888214,19.64613333333333,Tiilerilaaq,0,first,10,141,Tiilerilaaq population growth dynamics in the last two decades. Source: Statistics Greenland[4],Tiilerilaaq population dynamics,434,17,3,0.4358974358974359,0.3529411764705882,0.3117572665214538,0.2880517542362213,0.0,0.6924266815185547,1,1,0,1,1,1,1,1,1,0,1,1
Breastfeeding promotion / Breastfeeding promotion projects by region / Asia / India,,"The above bar graph shows the early initiation of breastfeeding in some Asian countries. In India, the percentage is 41.5. In Pakistan, it is 18%. In Sri Lanka, the percent is 90.3. In Bangladesh, it is 50.8%. In Nepal, the percent is 54.9. In China it is 26.4%.",3,Sun Nov 26 2023 11:44:26 GMT-0500 (Eastern Standard Time),1701017066982,1,prolific/train-0-119573.png,True,English,"{'question1': 'False', 'question10': '$0.71', 'question11': 'Skip', 'question12': 'False', 'question2': 'Great Britain', 'question3': '30-40 km', 'question4': 'True', 'question5': '17.6%', 'question6': 'Shanghai', 'question7': '$7.5', 'question8': '$50.54', 'question9': '40.51 Mbps'}",5.725366666666667,65107c535bd8683fe9bbe22d,129049,Well,Sun Nov 26 2023 11:24:48 GMT-0500 (Eastern Standard Time),1701015888214,19.64613333333333,Breastfeeding promotion,1,first,10,63,Early Initiation of Breastfeeding in some of the Asian countries. Source: 2018 Global Breastfeeding Scorecard,Early Initiation of Breastfeeding in some of the Asian countries. Source: 2018 Global Breastfeeding Scorecard https://www.indiaspend.com/6-in-10-indian-babies-miss-out-on-early-breastfeeding-and-its-life-saving-benefits-62614/,262,17,20,0.5957446808510638,0.673469387755102,0.743059515953064,0.6960892081260681,0.0,0.9155380725860596,1,1,0,1,1,1,1,1,1,0,1,1
Ikerasaarsuk / Population,,"The above graph shows the population growth of Ikerasaarsuk. In 1991, it was 79. In 1992, it was 77. In 1993, it was 83. In 1994, it was 91. In 1995, it was 102. In 1996, it was 101. In 1997, it was 113. In 1998, it was 117. In 1999, it was 116. In 2000, it was 121. In 2001, it was 116. In 2002, it was 110. In 2003, it was 118. In 2004, it was 123. In 2005, it was 121. In 2006, it was 124. In 2007, it was 113. In 2008 it was 109. In 2009, it was 103. In 2010, it was 106.",2,Sun Nov 26 2023 11:44:26 GMT-0500 (Eastern Standard Time),1701017066982,1,prolific/train-0-370954.png,True,English,"{'question1': 'False', 'question10': '$0.71', 'question11': 'Skip', 'question12': 'False', 'question2': 'Great Britain', 'question3': '30-40 km', 'question4': 'True', 'question5': '17.6%', 'question6': 'Shanghai', 'question7': '$7.5', 'question8': '$50.54', 'question9': '40.51 Mbps'}",5.725366666666667,65107c535bd8683fe9bbe22d,343299,Well,Sun Nov 26 2023 11:24:48 GMT-0500 (Eastern Standard Time),1701015888214,19.64613333333333,Ikerasaarsuk,2,first,10,149,Ikerasaarsuk population growth dynamics in the last two decades. Source: Statistics Greenland[4],Ikerasaarsuk population dynamics,475,17,3,0.4523809523809524,0.3783783783783784,0.5212241411209106,0.5762720704078674,0.0,0.7536988854408264,1,1,0,1,1,1,1,1,1,0,1,1
Tiilerilaaq / Population,,Tiilerilaaq growth in population from 1991-2010,1,Sun Nov 26 2023 08:48:17 GMT-0800 (Pacific Standard Time),1701017297437,1,prolific/train-0-448110.png,True,English,"{'question1': 'True', 'question10': '$0.71', 'question11': '1 to 3', 'question12': 'False', 'question2': 'Great Britain', 'question3': '30-40 km', 'question4': 'True', 'question5': '17.6%', 'question6': 'Shanghai', 'question7': '$5.2', 'question8': '$50.54', 'question9': '40.51 Mbps'}",4.174633333333333,5cc8de463317240001da2546,35326,Moderate,Sun Nov 26 2023 08:36:39 GMT-0800 (Pacific Standard Time),1701016599641,11.629933333333334,Tiilerilaaq,0,first,9,6,Tiilerilaaq population growth dynamics in the last two decades. Source: Statistics Greenland[4],Tiilerilaaq population dynamics,47,17,3,0.5,0.5185185185185185,0.7395293712615967,0.835243284702301,0.0,0.6924266815185547,0,1,0,1,1,1,1,1,1,0,1,1
Ikerasaarsuk / Population,,Ikerasaarsuk population growth from 1991 - 2010 by year,1,Sun Nov 26 2023 08:48:17 GMT-0800 (Pacific Standard Time),1701017297437,1,prolific/train-0-370954.png,True,English,"{'question1': 'True', 'question10': '$0.71', 'question11': '1 to 3', 'question12': 'False', 'question2': 'Great Britain', 'question3': '30-40 km', 'question4': 'True', 'question5': '17.6%', 'question6': 'Shanghai', 'question7': '$5.2', 'question8': '$50.54', 'question9': '40.51 Mbps'}",4.174633333333333,5cc8de463317240001da2546,37924,Moderate,Sun Nov 26 2023 08:36:39 GMT-0800 (Pacific Standard Time),1701016599641,11.629933333333334,Ikerasaarsuk,1,first,9,9,Ikerasaarsuk population growth dynamics in the last two decades. Source: Statistics Greenland[4],Ikerasaarsuk population dynamics,55,17,3,0.5428571428571428,0.5714285714285714,0.7772473096847534,0.8059058785438538,0.0,0.7536988854408264,0,1,0,1,1,1,1,1,1,0,1,1
Normally distributed and uncorrelated does not imply independent / Examples / A symmetric example,,density fxn joint range x and y values,5,Sun Nov 26 2023 08:48:17 GMT-0800 (Pacific Standard Time),1701017297437,1,prolific/train-0-236684.png,True,English,"{'question1': 'True', 'question10': '$0.71', 'question11': '1 to 3', 'question12': 'False', 'question2': 'Great Britain', 'question3': '30-40 km', 'question4': 'True', 'question5': '17.6%', 'question6': 'Shanghai', 'question7': '$5.2', 'question8': '$50.54', 'question9': '40.51 Mbps'}",4.174633333333333,5cc8de463317240001da2546,36164,Moderate,Sun Nov 26 2023 08:36:39 GMT-0800 (Pacific Standard Time),1701016599641,11.629933333333334,Normally distributed and uncorrelated does not imply independent,2,first,9,8,"Joint range of
  
    
      
        X
      
    
    {\displaystyle X}
  
 and
  
    
      
        Y
      
    
    {\displaystyle Y}
  
. Darker indicates higher value of the density function.","Two normally distributed, uncorrelated but dependent variables.",38,24,9,0.5161290322580645,0.5384615384615384,0.5789266228675842,0.3391549587249756,0.0,0.2161377370357513,0,1,0,1,1,1,1,1,1,0,1,1
Tiilerilaaq / Population,,This image is more of a graph of Tiilerilaaq Population.,3,Sun Nov 26 2023 09:56:06 GMT-0700 (Mountain Standard Time),1701017766287,1,prolific/train-0-448110.png,True,English,"{'question1': 'False', 'question10': '$0.80', 'question11': '1 to 3', 'question12': 'True', 'question2': 'Great Britain', 'question3': '60-70 km', 'question4': 'True', 'question5': '35.2%', 'question6': 'Seoul', 'question7': '$4.5', 'question8': '$50.54', 'question9': '40.51 Mbps'}",10.240016666666667,65629628c8002ad2e44b7616,185471,Very little,Sun Nov 26 2023 09:30:14 GMT-0700 (Mountain Standard Time),1701016214913,25.85623333333333,Tiilerilaaq,0,first,5,11,Tiilerilaaq population growth dynamics in the last two decades. Source: Statistics Greenland[4],Tiilerilaaq population dynamics,56,17,3,0.6,0.6521739130434783,0.5008765459060669,0.7927287817001343,0.0,0.6924266815185547,1,0,0,0,1,0,1,0,0,0,1,1
Tiilerilaaq / Population,,This image is more of a graph of Tiilerilaaq Population.,3,Sun Nov 26 2023 09:56:06 GMT-0700 (Mountain Standard Time),1701017766287,1,prolific/train-0-448110.png,True,English,"{'question1': 'False', 'question10': '$0.80', 'question11': '1 to 3', 'question12': 'True', 'question2': 'Great Britain', 'question3': '60-70 km', 'question4': 'True', 'question5': '35.2%', 'question6': 'Seoul', 'question7': '$4.5', 'question8': '$50.54', 'question9': '40.51 Mbps'}",10.240016666666667,65629628c8002ad2e44b7616,45359,Very little,Sun Nov 26 2023 09:30:14 GMT-0700 (Mountain Standard Time),1701016214913,25.85623333333333,Tiilerilaaq,0,second,5,11,Tiilerilaaq population growth dynamics in the last two decades. Source: Statistics Greenland[4],Tiilerilaaq population dynamics,56,17,3,0.6,0.6521739130434783,0.5008765459060669,0.7927287817001343,0.0,0.6924266815185547,1,0,0,0,1,0,1,0,0,0,1,1
Ernie Toshack with the Australian cricket team in England in 1948 / Role,,Ernie Toshack's First class batting performance highs and lows.,3,Sun Nov 26 2023 09:56:06 GMT-0700 (Mountain Standard Time),1701017766287,1,prolific/train-0-24640.png,True,English,"{'question1': 'False', 'question10': '$0.80', 'question11': '1 to 3', 'question12': 'True', 'question2': 'Great Britain', 'question3': '60-70 km', 'question4': 'True', 'question5': '35.2%', 'question6': 'Seoul', 'question7': '$4.5', 'question8': '$50.54', 'question9': '40.51 Mbps'}",10.240016666666667,65629628c8002ad2e44b7616,216821,Very little,Sun Nov 26 2023 09:30:14 GMT-0700 (Mountain Standard Time),1701016214913,25.85623333333333,Ernie Toshack with the Australian cricket team in England in 1948,1,first,5,11,"A chart showing Toshack's batting performance during the tour. The runs scored per innings are represented by the bars, with the red bars being Test innings and the pink bars being other first-class innings. The blue line is the average of the five most recent innings and the dots indicate not outs.[10]","Toshack started the season with five first-class innings outside the Tests, and all were less than 10 and four were less than five, none were not out. He then scored two scores between 15 and 20 in the Tests, with a score of four outside the Tests in between. After scores of 1 and zero not out in the next two tour matches, he scored 12 not out in his third and final Test innings. He then finished with two in a tour match. All of his efforts beyond ten were in Tests, and he passed ten in all three Test innings, two of these being not out.",63,60,119,0.6571428571428571,0.5789473684210527,0.5829648971557617,0.5318948030471802,0.0,0.5854800939559937,1,0,0,0,1,0,1,0,0,0,1,1
Ikerasaarsuk / Population,,Ikerasaarsuk/Population growth dynamics from 1991 thru 2010.,3,Sun Nov 26 2023 09:56:06 GMT-0700 (Mountain Standard Time),1701017766287,1,prolific/train-0-370954.png,True,English,"{'question1': 'False', 'question10': '$0.80', 'question11': '1 to 3', 'question12': 'True', 'question2': 'Great Britain', 'question3': '60-70 km', 'question4': 'True', 'question5': '35.2%', 'question6': 'Seoul', 'question7': '$4.5', 'question8': '$50.54', 'question9': '40.51 Mbps'}",10.240016666666667,65629628c8002ad2e44b7616,123038,Very little,Sun Nov 26 2023 09:30:14 GMT-0700 (Mountain Standard Time),1701016214913,25.85623333333333,Ikerasaarsuk,2,first,5,8,Ikerasaarsuk population growth dynamics in the last two decades. Source: Statistics Greenland[4],Ikerasaarsuk population dynamics,60,17,3,0.6285714285714286,0.6206896551724138,0.7695795297622681,0.8244591355323792,0.0,0.7536988854408264,1,0,0,0,1,0,1,0,0,0,1,1
Federal political financing in Canada / Private funding / Cost of fundraising,"I was a bit concerned about the first population data because it was described as dynamic, and the number (of people?) was not expressly indicated or labeled. as such.  For a minute I thought that perhaps each year was showing the CHANGE  of population between  the years, for example that the town increased by 120 people  in that year, rather than 120 people was the total population. The use of the word "" dynamic"" was a bit misleading, as was the misnomer of ""growth"" in the title of the bar graph that showed a population decline.","The image is a chunky bar graph which compares the fundraising expenses with the contributions raised. It shows 4 comparisons , Canada's Canservative party, the Liberal Party andthe New Democratic Party. It also shows the whole thing tallied up , inother words all three parties fundraising expenses as compared with all of the funds they raised. ",4,Sun Nov 26 2023 12:28:34 GMT-0500 (Eastern Standard Time),1701019714912,1,prolific/train-0-14152.png,True,English,"{'question1': 'False', 'question10': '$0.71', 'question11': 'Skip', 'question12': 'True', 'question2': 'Great Britain', 'question3': '30-40 km', 'question4': 'True', 'question5': '17.6%', 'question6': 'Shanghai', 'question7': 'Skip', 'question8': '$50.54', 'question9': '40.51 Mbps'}",14.613183333333334,64d3f74db38d2256c4ff650b,449062,Well,Sun Nov 26 2023 11:21:25 GMT-0500 (Eastern Standard Time),1701015685876,67.1506,Federal political financing in Canada,0,first,9,61,Party-level fundraising costs vs. party-level contributions raised at top three Canadian federal parties in 2009 (source: Elections Canada[4]),Party-level fundraising costs vs. party-level contributions raised at top three Canadian federal parties in 2009,347,24,15,0.5333333333333333,0.5897435897435898,0.6106712818145752,0.5860012769699097,0.0,0.9816362857818604,1,1,0,0,1,1,1,1,1,0,1,1
Ikerasaarsuk / Population,"I was a bit concerned about the first population data because it was described as dynamic, and the number (of people?) was not expressly indicated or labeled. as such.  For a minute I thought that perhaps each year was showing the CHANGE  of population between  the years, for example that the town increased by 120 people  in that year, rather than 120 people was the total population. The use of the word "" dynamic"" was a bit misleading, as was the misnomer of ""growth"" in the title of the bar graph that showed a population decline.",The Image is a bar graph with year by year across the bottom; 1991 through 2010. The bar for each year represents the population of Ikerasaarsuk  of last two decades. The chart shows 1991 to have a value of 79. Values basically rose dramatically in the early 1990s and tapered off after 2007. The highest value was 126 in the year 2006. ,4,Sun Nov 26 2023 12:28:34 GMT-0500 (Eastern Standard Time),1701019714912,1,prolific/train-0-370954.png,True,English,"{'question1': 'False', 'question10': '$0.71', 'question11': 'Skip', 'question12': 'True', 'question2': 'Great Britain', 'question3': '30-40 km', 'question4': 'True', 'question5': '17.6%', 'question6': 'Shanghai', 'question7': 'Skip', 'question8': '$50.54', 'question9': '40.51 Mbps'}",14.613183333333334,64d3f74db38d2256c4ff650b,1039637,Well,Sun Nov 26 2023 11:21:25 GMT-0500 (Eastern Standard Time),1701015685876,67.1506,Ikerasaarsuk,1,first,9,68,Ikerasaarsuk population growth dynamics in the last two decades. Source: Statistics Greenland[4],Ikerasaarsuk population dynamics,337,17,3,0.55,0.5294117647058824,0.4250338673591614,0.4741256535053253,0.0,0.7536988854408264,1,1,0,0,1,1,1,1,1,0,1,1
Ikerasaarsuk / Population,"I was a bit concerned about the first population data because it was described as dynamic, and the number (of people?) was not expressly indicated or labeled. as such.  For a minute I thought that perhaps each year was showing the CHANGE  of population between  the years, for example that the town increased by 120 people  in that year, rather than 120 people was the total population. The use of the word "" dynamic"" was a bit misleading, as was the misnomer of ""growth"" in the title of the bar graph that showed a population decline.",The Image is a bar graph with year by year across the bottom; 1991 through 2010. The bar for each year represents the population of Ikerasaarsuk. The chart shows 1991 to have a value of 79. Values basically rose dramatically in the early 1990s and tapered off after 2007. The highest value was 126 in the year 2006. ,4,Sun Nov 26 2023 12:28:34 GMT-0500 (Eastern Standard Time),1701019714912,1,prolific/train-0-370954.png,True,English,"{'question1': 'False', 'question10': '$0.71', 'question11': 'Skip', 'question12': 'True', 'question2': 'Great Britain', 'question3': '30-40 km', 'question4': 'True', 'question5': '17.6%', 'question6': 'Shanghai', 'question7': 'Skip', 'question8': '$50.54', 'question9': '40.51 Mbps'}",14.613183333333334,64d3f74db38d2256c4ff650b,61716,Well,Sun Nov 26 2023 11:21:25 GMT-0500 (Eastern Standard Time),1701015685876,67.1506,Ikerasaarsuk,1,second,9,64,Ikerasaarsuk population growth dynamics in the last two decades. Source: Statistics Greenland[4],Ikerasaarsuk population dynamics,316,17,3,0.55,0.5294117647058824,0.4092370867729187,0.4593176245689392,0.0,0.7536988854408264,1,1,0,0,1,1,1,1,1,0,1,1
Tiilerilaaq / Population,"I was a bit concerned about the first population data because it was described as dynamic, and the number (of people?) was not expressly indicated or labeled. as such.  For a minute I thought that perhaps each year was showing the CHANGE  of population between  the years, for example that the town increased by 120 people  in that year, rather than 120 people was the total population. The use of the word "" dynamic"" was a bit misleading, as was the misnomer of ""growth"" in the title of the bar graph that showed a population decline.","This image is a bar graph labeled Tiilerilaaq population growth dynamics in the last two decades.  The bottom of the chart is year by year 1991 through 2010, and title is a but of a misnomer , because the population definitelu dwindled. 1991 was 209 and 2010 was 134. ",4,Sun Nov 26 2023 12:28:34 GMT-0500 (Eastern Standard Time),1701019714912,1,prolific/train-0-448110.png,True,English,"{'question1': 'False', 'question10': '$0.71', 'question11': 'Skip', 'question12': 'True', 'question2': 'Great Britain', 'question3': '30-40 km', 'question4': 'True', 'question5': '17.6%', 'question6': 'Shanghai', 'question7': 'Skip', 'question8': '$50.54', 'question9': '40.51 Mbps'}",14.613183333333334,64d3f74db38d2256c4ff650b,254733,Well,Sun Nov 26 2023 11:21:25 GMT-0500 (Eastern Standard Time),1701015685876,67.1506,Tiilerilaaq,2,first,9,53,Tiilerilaaq population growth dynamics in the last two decades. Source: Statistics Greenland[4],Tiilerilaaq population dynamics,268,17,3,0.6388888888888888,0.5806451612903226,0.5902203321456909,0.6736593842506409,0.0,0.6924266815185547,1,1,0,0,1,1,1,1,1,0,1,1
Tiilerilaaq / Population,"I was a bit concerned about the first population data because it was described as dynamic, and the number (of people?) was not expressly indicated or labeled. as such.  For a minute I thought that perhaps each year was showing the CHANGE  of population between  the years, for example that the town increased by 120 people  in that year, rather than 120 people was the total population. The use of the word "" dynamic"" was a bit misleading, as was the misnomer of ""growth"" in the title of the bar graph that showed a population decline.","This image is a bar graph labeled Tiilerilaaq population growth dynamics in the last two decades.  The bottom of the chart is year by year; 1991 through 2010, and title is a bit of a misnomer , because the population definitelu dwindled. 1991 was 209 and 2010 was 134. ",4,Sun Nov 26 2023 12:28:34 GMT-0500 (Eastern Standard Time),1701019714912,1,prolific/train-0-448110.png,True,English,"{'question1': 'False', 'question10': '$0.71', 'question11': 'Skip', 'question12': 'True', 'question2': 'Great Britain', 'question3': '30-40 km', 'question4': 'True', 'question5': '17.6%', 'question6': 'Shanghai', 'question7': 'Skip', 'question8': '$50.54', 'question9': '40.51 Mbps'}",14.613183333333334,64d3f74db38d2256c4ff650b,25649,Well,Sun Nov 26 2023 11:21:25 GMT-0500 (Eastern Standard Time),1701015685876,67.1506,Tiilerilaaq,2,second,9,54,Tiilerilaaq population growth dynamics in the last two decades. Source: Statistics Greenland[4],Tiilerilaaq population dynamics,269,17,3,0.6216216216216216,0.5625,0.5877505540847778,0.678601861000061,0.0,0.6924266815185547,1,1,0,0,1,1,1,1,1,0,1,1
