,category,desc_type,comments,descriptions,difficulty_rating,endTime,experiment_id,image,is_data_visualization,languages,minivlat_answers,prolific_id,reaction_times,self_understanding,startDate,startTime,timeSpent,topic,trial_number,endDate,minivlat_score,num_words,caption,alttext,char_count,num_words_caption,num_words_alttext,desc_caption_jaccard,desc_caption_sbert,desc_alttext_sbert,sbert_alttext_caption,question1,question10,question11,question12,question2,question3,question4,question5,question6,question7,question8,question9
0,Anatomy of an Epidemic / Synopsis / Magic bullets,first,,It is a bar graph showing evaluation of people and mental illness in 1987 when Prozac was introduced vs 2003 when Prozac was readily available,4,1686185306032,1,prolific/train-0-29695.png,TRUE,,"{'question1': 'False', 'question10': '$0.71', 'question11': 'Skip', 'question12': 'Skip', 'question2': 'Great Britain', 'question3': '30-40 km', 'question4': 'Skip', 'question5': 'Skip', 'question6': 'Shanghai', 'question7': 'Skip', 'question8': '$50.54', 'question9': '40.51 Mbps'}",5e53019d2ca8273228d34e2a,195994,Little,Wed Jun 07 2023 17:31:07 GMT-0700 (Mountain Standard Time),1686184267502,17.3088333333333,Anatomy of an Epidemic,0,,7,25,"Number of Americans who received SSDI and SSI for mental disability in 1987 (blue) when Eli Lilly and Company introduced the antidepressive drug Prozac, compared to 2003 (red).",Chart showing increase (in red) over baseline (in blue) between 1987 and 2003,142,34,17,0.7441860465116280,0.48382899165153500,0.38463032245636000,0.1799975037574770,1,1,0,0,1,1,0,0,1,0,1,1
1,Great Southern Group / Fall,first,,It’s just showing a company’s total assets vs net assets from 1999 to 2008. Total assets are greater than net assets.,2,1686185306032,1,prolific/train-0-105181.jpg,TRUE,,"{'question1': 'False', 'question10': '$0.71', 'question11': 'Skip', 'question12': 'Skip', 'question2': 'Great Britain', 'question3': '30-40 km', 'question4': 'Skip', 'question5': 'Skip', 'question6': 'Shanghai', 'question7': 'Skip', 'question8': '$50.54', 'question9': '40.51 Mbps'}",5e53019d2ca8273228d34e2a,158614,Little,Wed Jun 07 2023 17:31:07 GMT-0700 (Mountain Standard Time),1686184267502,17.3088333333333,Great Southern Group,1,,7,27,"Great Southern Group's assets. Net assets were ultimately limited by the company's ""unsustainable levels"" of debt.[4]","area graph with years on the x-axis, ranging from 1999 to 2008, and thousands of dollars on the y-axis. Two areas are shown: net assets climb until 2005 then stay at a similar level to 2008, below the 800 million dollar line; gross assets climb above net assets and are still increasing in 2008, where they are near the 1.8 billion dollar line",117,25,70,0.5,0.4795425832271580,0.5566021203994750,0.34356820583343500,1,1,0,0,1,1,0,0,1,0,1,1
2,History of Georgetown University / Early growth / Early student life,first,,Showing a line graph of Georgetown university enrollment from 1791-1888,1,1686185306032,1,prolific/train-0-75149.png,TRUE,,"{'question1': 'False', 'question10': '$0.71', 'question11': 'Skip', 'question12': 'Skip', 'question2': 'Great Britain', 'question3': '30-40 km', 'question4': 'Skip', 'question5': 'Skip', 'question6': 'Shanghai', 'question7': 'Skip', 'question8': '$50.54', 'question9': '40.51 Mbps'}",5e53019d2ca8273228d34e2a,281703,Little,Wed Jun 07 2023 17:31:07 GMT-0700 (Mountain Standard Time),1686184267502,17.3088333333333,History of Georgetown University,2,,7,10,Graph of student enrollment 1791—1888,"A line graph of years from 1791 to 1888 with three subjects, the first in blue representing the Academy and College rises up from 69 in 1791 to 333 at its peak in 1857 followed by sudden drop and leveling around 200. The second, in red, represents the Medical School and begins in 1851 quickly peaking at 127 and then falling again while the third, in yellow, represents the law school which begins in 1871 and steadily rises to 168.",71,5,87,0.6785714285714290,0.811704695224762,0.6008458137512210,0.6250074505805970,1,1,0,0,1,1,0,0,1,0,1,1
3,Anatomy of an Epidemic / Synopsis / Magic bullets,first,,A bar graph comparing numbers of Americans who received SSDI and SSI in 1987 and 2003,1,1686186009719,1,prolific/train-0-29695.png,TRUE,English,"{'question1': 'False', 'question10': '$0.71', 'question11': '1 to 2', 'question12': 'False', 'question2': 'Great Britain', 'question3': '30-40 km', 'question4': 'True', 'question5': '17.6%', 'question6': 'Shanghai', 'question7': 'Skip', 'question8': '$50.54', 'question9': '40.51 Mbps'}",5dceb040f2fabc10bd4a10fa,61355,Well,Wed Jun 07 2023 20:50:17 GMT-0400 (Eastern Daylight Time),1686185417907,9.86353333333333,Anatomy of an Epidemic,0,,11,16,"Number of Americans who received SSDI and SSI for mental disability in 1987 (blue) when Eli Lilly and Company introduced the antidepressive drug Prozac, compared to 2003 (red).",Chart showing increase (in red) over baseline (in blue) between 1987 and 2003,85,34,17,0.6976744186046510,0.5632162690162660,0.335205078125,0.1799975037574770,1,1,1,1,1,1,1,1,1,0,1,1
4,Nutaarmiut / Population,first,,Bar graph showing Nutaariut population changes years from 1991 to 2010,2,1686186009719,1,prolific/train-0-89137.png,TRUE,English,"{'question1': 'False', 'question10': '$0.71', 'question11': '1 to 2', 'question12': 'False', 'question2': 'Great Britain', 'question3': '30-40 km', 'question4': 'True', 'question5': '17.6%', 'question6': 'Shanghai', 'question7': 'Skip', 'question8': '$50.54', 'question9': '40.51 Mbps'}",5dceb040f2fabc10bd4a10fa,62657,Well,Wed Jun 07 2023 20:50:17 GMT-0400 (Eastern Daylight Time),1686185417907,9.86353333333333,Saqqaq,1,,11,11,Nutaarmiut population growth dynamics in the last two decades. Source: Statistics Greenland[2],Nutaarmiut population dynamics,70,17,3,0.625,0.5540347695350650,0.588019609451294,0.7758365869522100,1,1,1,1,1,1,1,1,1,0,1,1
5,Nutaarmiut / Population,second,,Bar graph showing Nutaariut population changes by year from 1991 to 2010,2,1686186009719,1,prolific/train-0-89137.png,TRUE,English,"{'question1': 'False', 'question10': '$0.71', 'question11': '1 to 2', 'question12': 'False', 'question2': 'Great Britain', 'question3': '30-40 km', 'question4': 'True', 'question5': '17.6%', 'question6': 'Shanghai', 'question7': 'Skip', 'question8': '$50.54', 'question9': '40.51 Mbps'}",5dceb040f2fabc10bd4a10fa,10350,Well,Wed Jun 07 2023 20:50:17 GMT-0400 (Eastern Daylight Time),1686185417907,9.86353333333333,Saqqaq,1,,11,12,Nutaarmiut population growth dynamics in the last two decades. Source: Statistics Greenland[2],Nutaarmiut population dynamics,72,17,3,0.6060606060606060,0.5687823295593260,0.6053153276443480,0.7758365869522100,1,1,1,1,1,1,1,1,1,0,1,1
6,History of Georgetown University / Early growth / Early student life,first,,"Line graph showing changes in the rate of enrollment for the Academy and College, the Medical School, and the Law School of Georgetown University  from 1791 to 1888",2,1686186009719,1,prolific/train-0-75149.png,TRUE,English,"{'question1': 'False', 'question10': '$0.71', 'question11': '1 to 2', 'question12': 'False', 'question2': 'Great Britain', 'question3': '30-40 km', 'question4': 'True', 'question5': '17.6%', 'question6': 'Shanghai', 'question7': 'Skip', 'question8': '$50.54', 'question9': '40.51 Mbps'}",5dceb040f2fabc10bd4a10fa,68123,Well,Wed Jun 07 2023 20:50:17 GMT-0400 (Eastern Daylight Time),1686185417907,9.86353333333333,History of Georgetown University,2,,11,30,Graph of student enrollment 1791—1888,"A line graph of years from 1791 to 1888 with three subjects, the first in blue representing the Academy and College rises up from 69 in 1791 to 333 at its peak in 1857 followed by sudden drop and leveling around 200. The second, in red, represents the Medical School and begins in 1851 quickly peaking at 127 and then falling again while the third, in yellow, represents the law school which begins in 1871 and steadily rises to 168.",164,5,87,0.5588235294117650,0.7675624489784240,0.797808051109314,0.6250074505805970,1,1,1,1,1,1,1,1,1,0,1,1
7,Bootham Crescent / Records,first,,Graph shows average attendance increased during initial years then ovarall flat to decreasing trend in attendance from about 1980 onwards.  Large fluctuations in attendance during the first 40 years.,3,1686186568158,1,prolific/train-0-62319.png,TRUE,English,"{'question1': 'False', 'question10': '$0.71', 'question11': '1 to 2', 'question12': 'False', 'question2': 'Great Britain', 'question3': '30-40 km', 'question4': 'True', 'question5': '35.2%', 'question6': 'Shanghai', 'question7': '$5.2', 'question8': '$50.54', 'question9': '40.51 Mbps'}",5d9bc20e05a36d03c375758c,253786,Very Well,Wed Jun 07 2023 20:50:58 GMT-0400 (Eastern Daylight Time),1686185458908,18.4875,Bootham Crescent,0,,10,31,York City's highest and average league attendances at Bootham Crescent from the 1932–33 season,Graph showing the highest and average league attendances at the Bootham Crescent association football ground,199,15,15,0.5526315789473690,0.3019714951515200,0.5010979175567630,0.6745055317878720,1,1,1,1,1,1,1,0,1,0,1,1
8,Anatomy of an Epidemic / Synopsis / Magic bullets,first,,The number of people receiving benefits for metal illness doubled between 1987 and 2003.,1,1686186568158,1,prolific/train-0-29695.png,TRUE,English,"{'question1': 'False', 'question10': '$0.71', 'question11': '1 to 2', 'question12': 'False', 'question2': 'Great Britain', 'question3': '30-40 km', 'question4': 'True', 'question5': '35.2%', 'question6': 'Shanghai', 'question7': '$5.2', 'question8': '$50.54', 'question9': '40.51 Mbps'}",5d9bc20e05a36d03c375758c,128754,Very Well,Wed Jun 07 2023 20:50:58 GMT-0400 (Eastern Daylight Time),1686185458908,18.4875,Anatomy of an Epidemic,1,,10,15,"Number of Americans who received SSDI and SSI for mental disability in 1987 (blue) when Eli Lilly and Company introduced the antidepressive drug Prozac, compared to 2003 (red).",Chart showing increase (in red) over baseline (in blue) between 1987 and 2003,88,34,17,0.6590909090909090,0.3226124346256260,0.2658518850803380,0.1799975037574770,1,1,1,1,1,1,1,0,1,0,1,1
9,History of Georgetown University / Early growth / Early student life,first,,"Student enrollment at Georgetown increased 6x from 1791 - 1888 (from around 75 student to 450 student).  General Academy & College student increased about 2.5x during that time, while remaining increase was due to addition of medical school in 1851 and law school in 1871.",4,1686186568158,1,prolific/train-0-75149.png,TRUE,English,"{'question1': 'False', 'question10': '$0.71', 'question11': '1 to 2', 'question12': 'False', 'question2': 'Great Britain', 'question3': '30-40 km', 'question4': 'True', 'question5': '35.2%', 'question6': 'Shanghai', 'question7': '$5.2', 'question8': '$50.54', 'question9': '40.51 Mbps'}",5d9bc20e05a36d03c375758c,262004,Very Well,Wed Jun 07 2023 20:50:58 GMT-0400 (Eastern Daylight Time),1686185458908,18.4875,History of Georgetown University,2,,10,50,Graph of student enrollment 1791—1888,"A line graph of years from 1791 to 1888 with three subjects, the first in blue representing the Academy and College rises up from 69 in 1791 to 333 at its peak in 1857 followed by sudden drop and leveling around 200. The second, in red, represents the Medical School and begins in 1851 quickly peaking at 127 and then falling again while the third, in yellow, represents the law school which begins in 1871 and steadily rises to 168.",272,5,87,0.4523809523809520,0.5301371812820440,0.5427708625793460,0.6250074505805970,1,1,1,1,1,1,1,0,1,0,1,1
10,Cloture / United States / Procedure,first,,"The data states that cloture invoking, vontes on cloture, & cloture motions filed all peaked then dropped from 2007-2008",1,1686188580838,1,prolific/train-0-76637.png,TRUE,English,"{'question1': 'False', 'question10': '$0.71', 'question11': '1 to 3', 'question12': 'False', 'question2': 'Great Britain', 'question3': '30-40 km', 'question4': 'True', 'question5': '17.6%', 'question6': 'Shanghai', 'question7': '$4.5', 'question8': '$50.54', 'question9': '40.51 Mbps'}",603ee4c2bd61ee1a08fd6a8a,99548,Very Well,Wed Jun 07 2023 20:32:45 GMT-0500 (Central Daylight Time),1686187965206,10.2605333333333,Cloture,0,,10,21,"Cloture voting in the United States Senate , 1917−2014.[43]","Number of cloture motions filed, voted on, and invoked by the U.S. Senate, 1917−2014.",120,13,18,0.48717948717948700,0.38446635007858300,0.5006698369979860,0.7685588598251340,1,1,0,1,1,1,1,1,1,0,1,1
11,Ernie Toshack with the Australian cricket team in England in 1948 / Role,first,,In this visualization Ernie TOshak's batting performance in the 1948 England tour got very close to 20 late July,3,1686188580838,1,prolific/train-0-24640.png,TRUE,English,"{'question1': 'False', 'question10': '$0.71', 'question11': '1 to 3', 'question12': 'False', 'question2': 'Great Britain', 'question3': '30-40 km', 'question4': 'True', 'question5': '17.6%', 'question6': 'Shanghai', 'question7': '$4.5', 'question8': '$50.54', 'question9': '40.51 Mbps'}",603ee4c2bd61ee1a08fd6a8a,75649,Very Well,Wed Jun 07 2023 20:32:45 GMT-0500 (Central Daylight Time),1686187965206,10.2605333333333,Ernie Toshack with the Australian cricket team in England in 1948,1,,10,20,"A chart showing Toshack's batting performance during the tour. The runs scored per innings are represented by the bars, with the red bars being Test innings and the pink bars being other first-class innings. The blue line is the average of the five most recent innings and the dots indicate not outs.[10]","Toshack started the season with five first-class innings outside the Tests, and all were less than 10 and four were less than five, none were not out. He then scored two scores between 15 and 20 in the Tests, with a score of four outside the Tests in between. After scores of 1 and zero not out in the next two tour matches, he scored 12 not out in his third and final Test innings. He then finished with two in a tour match. All of his efforts beyond ten were in Tests, and he passed ten in all three Test innings, two of these being not out.",112,60,119,0.6190476190476190,0.6118217706680300,0.6445283889770510,0.6793749332427980,1,1,0,1,1,1,1,1,1,0,1,1
12,History of Georgetown University / Early growth / Early student life,first,,"All three schooling options on this visualization (Academy/College, Medical School, & Law School)have spiked in 1888",4,1686188580838,1,prolific/train-0-75149.png,TRUE,English,"{'question1': 'False', 'question10': '$0.71', 'question11': '1 to 3', 'question12': 'False', 'question2': 'Great Britain', 'question3': '30-40 km', 'question4': 'True', 'question5': '17.6%', 'question6': 'Shanghai', 'question7': '$4.5', 'question8': '$50.54', 'question9': '40.51 Mbps'}",603ee4c2bd61ee1a08fd6a8a,85521,Very Well,Wed Jun 07 2023 20:32:45 GMT-0500 (Central Daylight Time),1686187965206,10.2605333333333,History of Georgetown University,2,,10,21,Graph of student enrollment 1791—1888,"A line graph of years from 1791 to 1888 with three subjects, the first in blue representing the Academy and College rises up from 69 in 1791 to 333 at its peak in 1857 followed by sudden drop and leveling around 200. The second, in red, represents the Medical School and begins in 1851 quickly peaking at 127 and then falling again while the third, in yellow, represents the law school which begins in 1871 and steadily rises to 168.",116,5,87,0.41025641025641000,0.4697232246398930,0.6560356020927430,0.6250074505805970,1,1,0,1,1,1,1,1,1,0,1,1
13,Bootham Crescent / Records,first,,"The graph shows a downward trend in averages and highest league attendances. Highest attendance was around 20,000 between 1948-49 with corresponding average of 10,000. The lowest was in 2014-15 with highest attendance of 5000 and average lower than that at around 4000",5,1686616161940,1,prolific/train-0-62319.png,TRUE,English,"{'question1': 'False', 'question10': '$0.71', 'question11': '1 to 4', 'question12': 'False', 'question2': 'Great Britain', 'question3': '30-40 km', 'question4': 'False', 'question5': '17.6%', 'question6': 'Shanghai', 'question7': '$5.2', 'question8': '$50.54', 'question9': '40.51 Mbps'}",6106d7d2f6211d383e4f634c,205445,Moderate,Mon Jun 12 2023 17:09:42 GMT-0700 (Pacific Daylight Time),1686614982064,19.6646,Bootham Crescent,0,Mon Jun 12 2023 17:29:21 GMT-0700 (Pacific Daylight Time),9,44,York City's highest and average league attendances at Bootham Crescent from the 1932–33 season,Graph showing the highest and average league attendances at the Bootham Crescent association football ground,268,15,15,0.4878048780487810,0.5626232624053960,0.6946691870689390,0.6745055317878720,1,1,0,1,1,1,0,1,1,0,1,1
14,Great Southern Group / Fall,first,,"This graph demonstrates a steady amount of net assets and total assets around 200,000 between 2000 and 2003. The total assets then increased with a steady amount from 200000 to 1800000 between 2004 to 2008. The net assets increase to 700,000 between 2004 to 2005 then plateaued until 2008",4,1686616161940,1,prolific/train-0-105181.jpg,TRUE,English,"{'question1': 'False', 'question10': '$0.71', 'question11': '1 to 4', 'question12': 'False', 'question2': 'Great Britain', 'question3': '30-40 km', 'question4': 'False', 'question5': '17.6%', 'question6': 'Shanghai', 'question7': '$5.2', 'question8': '$50.54', 'question9': '40.51 Mbps'}",6106d7d2f6211d383e4f634c,197547,Moderate,Mon Jun 12 2023 17:09:42 GMT-0700 (Pacific Daylight Time),1686614982064,19.6646,Great Southern Group,1,Mon Jun 12 2023 17:29:21 GMT-0700 (Pacific Daylight Time),9,51,"Great Southern Group's assets. Net assets were ultimately limited by the company's ""unsustainable levels"" of debt.[4]","area graph with years on the x-axis, ranging from 1999 to 2008, and thousands of dollars on the y-axis. Two areas are shown: net assets climb until 2005 then stay at a similar level to 2008, below the 800 million dollar line; gross assets climb above net assets and are still increasing in 2008, where they are near the 1.8 billion dollar line",289,25,70,0.55,0.4432597756385800,0.7395232915878300,0.34356820583343500,1,1,0,1,1,1,0,1,1,0,1,1
15,Anatomy of an Epidemic / Synopsis / Magic bullets,first,,"This is a bar graph comparison between 5 groups of individuals in 1987 and 2003. The first group of individuals were SSDI recipients disabled by mental illness and showed 900,000 individuals in 1987 compared to 2,800,000 in 2003. Group 2 were SSI recipients with diagnosis of mental illness and in 1987 the number was around 2,500,000 and in 2003 it was 4,000,000. For Total number of SSI and SSDI payments to disabled mental illness individuals it was 3,100,000 in 1987 and 5,800,000 in 2003. For the number of SSDI recipients who also received SSI payments it was around 100,000 to 200,000 for both years. Lastly for total disabled mentally ill in 1987 it was 3,000,000 and 2003 it was 5,500,000.",4,1686616161940,1,prolific/train-0-29695.png,TRUE,English,"{'question1': 'False', 'question10': '$0.71', 'question11': '1 to 4', 'question12': 'False', 'question2': 'Great Britain', 'question3': '30-40 km', 'question4': 'False', 'question5': '17.6%', 'question6': 'Shanghai', 'question7': '$5.2', 'question8': '$50.54', 'question9': '40.51 Mbps'}",6106d7d2f6211d383e4f634c,317097,Moderate,Mon Jun 12 2023 17:09:42 GMT-0700 (Pacific Daylight Time),1686614982064,19.6646,Anatomy of an Epidemic,2,Mon Jun 12 2023 17:29:21 GMT-0700 (Pacific Daylight Time),9,126,"Number of Americans who received SSDI and SSI for mental disability in 1987 (blue) when Eli Lilly and Company introduced the antidepressive drug Prozac, compared to 2003 (red).",Chart showing increase (in red) over baseline (in blue) between 1987 and 2003,698,34,17,0.7291666666666670,0.6450393199920650,0.20859554409980800,0.1799975037574770,1,1,0,1,1,1,0,1,1,0,1,1
16,Federal political financing in Canada / Private funding / Cost of fundraising,first,,A bar graph showing fundraising expenses in gray and subsidized contributions raised in blue. For each party the dollar amounts vary but the subsidized contributions are always higher.,2,1686616366624,1,prolific/train-0-14152.png,TRUE,English,"{'question1': 'False', 'question10': '$0.63', 'question11': '1 to 3', 'question12': 'False', 'question2': 'Great Britain', 'question3': '30-40 km', 'question4': 'True', 'question5': '17.6%', 'question6': 'Shanghai', 'question7': 'Skip', 'question8': '$50.54', 'question9': '40.51 Mbps'}",610920ffd1bcb464b707d4c8,68684,Well,Mon Jun 12 2023 20:22:11 GMT-0400 (Eastern Daylight Time),1686615731638,10.5831,Federal political financing in Canada,0,Mon Jun 12 2023 20:32:46 GMT-0400 (Eastern Daylight Time),9,30,Party-level fundraising costs vs. party-level contributions raised at top three Canadian federal parties in 2009 (source: Elections Canada[4]),Party-level fundraising costs vs. party-level contributions raised at top three Canadian federal parties in 2009,184,24,15,0.525,0.5294933319091800,0.5241519808769230,0.9773972630500790,1,0,0,1,1,1,1,1,1,0,1,1
17,Cloture / United States / Procedure,first,,"This is a graph showing the cloture motions filed, votes on cloture, and cloture invoked per year in the U.S. senate since 1917. The number of all three events increased over time.",3,1686616366624,1,prolific/train-0-76637.png,TRUE,English,"{'question1': 'False', 'question10': '$0.63', 'question11': '1 to 3', 'question12': 'False', 'question2': 'Great Britain', 'question3': '30-40 km', 'question4': 'True', 'question5': '17.6%', 'question6': 'Shanghai', 'question7': 'Skip', 'question8': '$50.54', 'question9': '40.51 Mbps'}",610920ffd1bcb464b707d4c8,74622,Well,Mon Jun 12 2023 20:22:11 GMT-0400 (Eastern Daylight Time),1686615731638,10.5831,Cloture,1,Mon Jun 12 2023 20:32:46 GMT-0400 (Eastern Daylight Time),9,36,"Cloture voting in the United States Senate , 1917−2014.[43]","Number of cloture motions filed, voted on, and invoked by the U.S. Senate, 1917−2014.",180,13,18,0.5641025641025640,0.6800386905670170,0.7576424479484560,0.7685588598251340,1,0,0,1,1,1,1,1,1,0,1,1
18,Nutaarmiut / Population,first,,This is a bar graph showing the change in Nutaarmiut population from 1991 to 2010.,5,1686616366624,1,prolific/train-0-89137.png,TRUE,English,"{'question1': 'False', 'question10': '$0.63', 'question11': '1 to 3', 'question12': 'False', 'question2': 'Great Britain', 'question3': '30-40 km', 'question4': 'True', 'question5': '17.6%', 'question6': 'Shanghai', 'question7': 'Skip', 'question8': '$50.54', 'question9': '40.51 Mbps'}",610920ffd1bcb464b707d4c8,64784,Well,Mon Jun 12 2023 20:22:11 GMT-0400 (Eastern Daylight Time),1686615731638,10.5831,Saqqaq,2,Mon Jun 12 2023 20:32:46 GMT-0400 (Eastern Daylight Time),9,16,Nutaarmiut population growth dynamics in the last two decades. Source: Statistics Greenland[2],Nutaarmiut population dynamics,83,17,3,0.6060606060606060,0.641383707523346,0.7057087421417240,0.7758365869522100,1,0,0,1,1,1,1,1,1,0,1,1
19,Great Southern Group / Fall,first,,The total assets and net assets values across the years,2,1686617159055,1,prolific/train-0-105181.jpg,TRUE,English,"{'question1': 'False', 'question10': '$0.71', 'question11': 'Skip', 'question12': 'Skip', 'question2': 'Great Britain', 'question3': '30-40 km', 'question4': 'True', 'question5': '35.2%', 'question6': 'Shanghai', 'question7': '$6.1', 'question8': '$50.54', 'question9': '40.51 Mbps'}",6482f94e03d469a7669bade6,85437,Moderate,Mon Jun 12 2023 20:33:46 GMT-0400 (Eastern Daylight Time),1686616426822,12.2038833333333,Great Southern Group,0,Mon Jun 12 2023 20:45:59 GMT-0400 (Eastern Daylight Time),9,10,"Great Southern Group's assets. Net assets were ultimately limited by the company's ""unsustainable levels"" of debt.[4]","area graph with years on the x-axis, ranging from 1999 to 2008, and thousands of dollars on the y-axis. Two areas are shown: net assets climb until 2005 then stay at a similar level to 2008, below the 800 million dollar line; gross assets climb above net assets and are still increasing in 2008, where they are near the 1.8 billion dollar line",55,25,70,0.4838709677419360,0.5050974488258360,0.6099755764007570,0.34356820583343500,1,1,0,0,1,1,1,0,1,1,1,1
20,Anatomy of an Epidemic / Synopsis / Magic bullets,first,,SSDI and SSI recipient in 1987 and 2003,3,1686617159055,1,prolific/train-0-29695.png,TRUE,English,"{'question1': 'False', 'question10': '$0.71', 'question11': 'Skip', 'question12': 'Skip', 'question2': 'Great Britain', 'question3': '30-40 km', 'question4': 'True', 'question5': '35.2%', 'question6': 'Shanghai', 'question7': '$6.1', 'question8': '$50.54', 'question9': '40.51 Mbps'}",6482f94e03d469a7669bade6,124470,Moderate,Mon Jun 12 2023 20:33:46 GMT-0400 (Eastern Daylight Time),1686616426822,12.2038833333333,Anatomy of an Epidemic,1,Mon Jun 12 2023 20:45:59 GMT-0400 (Eastern Daylight Time),9,8,"Number of Americans who received SSDI and SSI for mental disability in 1987 (blue) when Eli Lilly and Company introduced the antidepressive drug Prozac, compared to 2003 (red).",Chart showing increase (in red) over baseline (in blue) between 1987 and 2003,39,34,17,0.46511627906976700,0.5354586243629460,0.13249261677265200,0.1799975037574770,1,1,0,0,1,1,1,0,1,1,1,1
21,Nutaarmiut / Population,first,,"The growth of population, the last two decades in Nataarmiut",3,1686617159055,1,prolific/train-0-42178.png,TRUE,English,"{'question1': 'False', 'question10': '$0.71', 'question11': 'Skip', 'question12': 'Skip', 'question2': 'Great Britain', 'question3': '30-40 km', 'question4': 'True', 'question5': '35.2%', 'question6': 'Shanghai', 'question7': '$6.1', 'question8': '$50.54', 'question9': '40.51 Mbps'}",6482f94e03d469a7669bade6,66168,Moderate,Mon Jun 12 2023 20:33:46 GMT-0400 (Eastern Daylight Time),1686616426822,12.2038833333333,Nutaarmiut,2,Mon Jun 12 2023 20:45:59 GMT-0400 (Eastern Daylight Time),9,11,Nutaarmiut population growth dynamics in the last two decades. Source: Statistics Greenland[2],Nutaarmiut population dynamics,60,17,3,0.6333333333333330,0.701387882232666,0.6123389005661010,0.7758365869522100,1,1,0,0,1,1,1,0,1,1,1,1
22,History of Georgetown University / Early growth / Early student life,first,,"A graph with 3 lines for goergetown law, med and college admissions",3,1686617260699,1,prolific/train-0-75149.png,TRUE,english,"{'question1': 'False', 'question10': '$0.71', 'question11': '1 to 2', 'question12': 'False', 'question2': 'Great Britain', 'question3': '30-40 km', 'question4': 'True', 'question5': '17.6%', 'question6': 'Shanghai', 'question7': '$5.2', 'question8': '$50.54', 'question9': '40.51 Mbps'}",63b6cf1609c12f37f2cf0371,46625,Moderate,Mon Jun 12 2023 20:40:27 GMT-0400 (Eastern Daylight Time),1686616827704,7.21658333333333,History of Georgetown University,0,Mon Jun 12 2023 20:47:40 GMT-0400 (Eastern Daylight Time),11,13,Graph of student enrollment 1791—1888,"A line graph of years from 1791 to 1888 with three subjects, the first in blue representing the Academy and College rises up from 69 in 1791 to 333 at its peak in 1857 followed by sudden drop and leveling around 200. The second, in red, represents the Medical School and begins in 1851 quickly peaking at 127 and then falling again while the third, in yellow, represents the law school which begins in 1871 and steadily rises to 168.",67,5,87,0.5,0.586621105670929,0.5353109836578370,0.6250074505805970,1,1,1,1,1,1,1,1,1,0,1,1
23,Great Southern Group / Fall,first,,A graph showing total and net assets for great southern group,3,1686617260699,1,prolific/train-0-105181.jpg,TRUE,english,"{'question1': 'False', 'question10': '$0.71', 'question11': '1 to 2', 'question12': 'False', 'question2': 'Great Britain', 'question3': '30-40 km', 'question4': 'True', 'question5': '17.6%', 'question6': 'Shanghai', 'question7': '$5.2', 'question8': '$50.54', 'question9': '40.51 Mbps'}",63b6cf1609c12f37f2cf0371,31576,Moderate,Mon Jun 12 2023 20:40:27 GMT-0400 (Eastern Daylight Time),1686616827704,7.21658333333333,Great Southern Group,1,Mon Jun 12 2023 20:47:40 GMT-0400 (Eastern Daylight Time),11,11,"Great Southern Group's assets. Net assets were ultimately limited by the company's ""unsustainable levels"" of debt.[4]","area graph with years on the x-axis, ranging from 1999 to 2008, and thousands of dollars on the y-axis. Two areas are shown: net assets climb until 2005 then stay at a similar level to 2008, below the 800 million dollar line; gross assets climb above net assets and are still increasing in 2008, where they are near the 1.8 billion dollar line",61,25,70,0.5,0.6293274760246280,0.504707932472229,0.34356820583343500,1,1,1,1,1,1,1,1,1,0,1,1
24,Ernie Toshack with the Australian cricket team in England in 1948 / Role,first,,a bar graph from May to august on the X axis and batting performance on the Y axis,4,1686617260699,1,prolific/train-0-24640.png,TRUE,english,"{'question1': 'False', 'question10': '$0.71', 'question11': '1 to 2', 'question12': 'False', 'question2': 'Great Britain', 'question3': '30-40 km', 'question4': 'True', 'question5': '17.6%', 'question6': 'Shanghai', 'question7': '$5.2', 'question8': '$50.54', 'question9': '40.51 Mbps'}",63b6cf1609c12f37f2cf0371,59937,Moderate,Mon Jun 12 2023 20:40:27 GMT-0400 (Eastern Daylight Time),1686616827704,7.21658333333333,Ernie Toshack with the Australian cricket team in England in 1948,2,Mon Jun 12 2023 20:47:40 GMT-0400 (Eastern Daylight Time),11,18,"A chart showing Toshack's batting performance during the tour. The runs scored per innings are represented by the bars, with the red bars being Test innings and the pink bars being other first-class innings. The blue line is the average of the five most recent innings and the dots indicate not outs.[10]","Toshack started the season with five first-class innings outside the Tests, and all were less than 10 and four were less than five, none were not out. He then scored two scores between 15 and 20 in the Tests, with a score of four outside the Tests in between. After scores of 1 and zero not out in the next two tour matches, he scored 12 not out in his third and final Test innings. He then finished with two in a tour match. All of his efforts beyond ten were in Tests, and he passed ten in all three Test innings, two of these being not out.",82,60,119,0.5135135135135140,0.5896137952804570,0.310905396938324,0.6793749332427980,1,1,1,1,1,1,1,1,1,0,1,1
25,Anatomy of an Epidemic / Synopsis / Magic bullets,first,,Bar graph of the number of Americans who received SSDI and SSI in 1987,3,1686617358776,1,prolific/train-0-29695.png,TRUE,English,"{'question1': 'False', 'question10': '$0.71', 'question11': 'Skip', 'question12': 'Skip', 'question2': 'Great Britain', 'question3': '30-40 km', 'question4': 'False', 'question5': '17.6%', 'question6': 'Shanghai', 'question7': '$4.5', 'question8': '$50.54', 'question9': '40.51 Mbps'}",5ba596467c0ebe0001269842,48298,Moderate,Mon Jun 12 2023 19:41:16 GMT-0500 (Central Daylight Time),1686616876663,8.03521666666667,Anatomy of an Epidemic,0,Mon Jun 12 2023 19:49:18 GMT-0500 (Central Daylight Time),8,14,"Number of Americans who received SSDI and SSI for mental disability in 1987 (blue) when Eli Lilly and Company introduced the antidepressive drug Prozac, compared to 2003 (red).",Chart showing increase (in red) over baseline (in blue) between 1987 and 2003,70,34,17,0.6363636363636360,0.5631587505340580,0.3474726974964140,0.1799975037574770,1,1,0,0,1,1,0,1,1,0,1,1
26,Cloture / United States / Procedure,first,,A chart showing the increasing amount of cloture voting in the past 100 years,2,1686617358776,1,prolific/train-0-76637.png,TRUE,English,"{'question1': 'False', 'question10': '$0.71', 'question11': 'Skip', 'question12': 'Skip', 'question2': 'Great Britain', 'question3': '30-40 km', 'question4': 'False', 'question5': '17.6%', 'question6': 'Shanghai', 'question7': '$4.5', 'question8': '$50.54', 'question9': '40.51 Mbps'}",5ba596467c0ebe0001269842,46644,Moderate,Mon Jun 12 2023 19:41:16 GMT-0500 (Central Daylight Time),1686616876663,8.03521666666667,Cloture,1,Mon Jun 12 2023 19:49:18 GMT-0500 (Central Daylight Time),8,14,"Cloture voting in the United States Senate , 1917−2014.[43]","Number of cloture motions filed, voted on, and invoked by the U.S. Senate, 1917−2014.",77,13,18,0.43243243243243200,0.6945536136627200,0.5084978938102720,0.7685588598251340,1,1,0,0,1,1,0,1,1,0,1,1
27,History of Georgetown University / Early growth / Early student life,first,,Chart showing the number of people who enrolled at Georgetown for different degrees from 1791-1888,2,1686617358776,1,prolific/train-0-75149.png,TRUE,English,"{'question1': 'False', 'question10': '$0.71', 'question11': 'Skip', 'question12': 'Skip', 'question2': 'Great Britain', 'question3': '30-40 km', 'question4': 'False', 'question5': '17.6%', 'question6': 'Shanghai', 'question7': '$4.5', 'question8': '$50.54', 'question9': '40.51 Mbps'}",5ba596467c0ebe0001269842,55098,Moderate,Mon Jun 12 2023 19:41:16 GMT-0500 (Central Daylight Time),1686616876663,8.03521666666667,History of Georgetown University,2,Mon Jun 12 2023 19:49:18 GMT-0500 (Central Daylight Time),8,15,Graph of student enrollment 1791—1888,"A line graph of years from 1791 to 1888 with three subjects, the first in blue representing the Academy and College rises up from 69 in 1791 to 333 at its peak in 1857 followed by sudden drop and leveling around 200. The second, in red, represents the Medical School and begins in 1851 quickly peaking at 127 and then falling again while the third, in yellow, represents the law school which begins in 1871 and steadily rises to 168.",98,5,87,0.7407407407407410,0.6767452955245970,0.4620450735092160,0.6250074505805970,1,1,0,0,1,1,0,1,1,0,1,1
28,History of Georgetown University / Early growth / Early student life,first,,Growth of student body at Georgetown overtime,5,1686617515040,1,prolific/train-0-75149.png,TRUE,English,"{'question1': 'False', 'question10': '$0.71', 'question11': '1 to 3', 'question12': 'False', 'question2': 'Great Britain', 'question3': '30-40 km', 'question4': 'True', 'question5': '17.6%', 'question6': 'Shanghai', 'question7': '$5.2', 'question8': '$50.54', 'question9': '40.51 Mbps'}",5e8f10db1e5f531d1a7723ae,28666,Very little,Mon Jun 12 2023 20:46:01 GMT-0400 (Eastern Daylight Time),1686617161554,5.89143333333333,History of Georgetown University,0,Mon Jun 12 2023 20:51:55 GMT-0400 (Eastern Daylight Time),10,7,Graph of student enrollment 1791—1888,"A line graph of years from 1791 to 1888 with three subjects, the first in blue representing the Academy and College rises up from 69 in 1791 to 333 at its peak in 1857 followed by sudden drop and leveling around 200. The second, in red, represents the Medical School and begins in 1851 quickly peaking at 127 and then falling again while the third, in yellow, represents the law school which begins in 1871 and steadily rises to 168.",45,5,87,0.5185185185185190,0.43583616614341700,0.4026980996131900,0.6250074505805970,1,1,0,1,1,1,1,1,1,0,1,1
29,Nutaarmiut / Population,first,,Nutaarmiut population over time,4,1686617515040,1,prolific/train-0-89137.png,TRUE,English,"{'question1': 'False', 'question10': '$0.71', 'question11': '1 to 3', 'question12': 'False', 'question2': 'Great Britain', 'question3': '30-40 km', 'question4': 'True', 'question5': '17.6%', 'question6': 'Shanghai', 'question7': '$5.2', 'question8': '$50.54', 'question9': '40.51 Mbps'}",5e8f10db1e5f531d1a7723ae,16214,Very little,Mon Jun 12 2023 20:46:01 GMT-0400 (Eastern Daylight Time),1686617161554,5.89143333333333,Saqqaq,1,Mon Jun 12 2023 20:51:55 GMT-0400 (Eastern Daylight Time),10,4,Nutaarmiut population growth dynamics in the last two decades. Source: Statistics Greenland[2],Nutaarmiut population dynamics,31,17,3,0.4642857142857140,0.7419707775115970,0.865380048751831,0.7758365869522100,1,1,0,1,1,1,1,1,1,0,1,1
30,Nutaarmiut / Population,first,,Nutaarmiut population over the last 20 years has fluctuated significantly,5,1686617515040,1,prolific/train-0-42178.png,TRUE,English,"{'question1': 'False', 'question10': '$0.71', 'question11': '1 to 3', 'question12': 'False', 'question2': 'Great Britain', 'question3': '30-40 km', 'question4': 'True', 'question5': '17.6%', 'question6': 'Shanghai', 'question7': '$5.2', 'question8': '$50.54', 'question9': '40.51 Mbps'}",5e8f10db1e5f531d1a7723ae,34965,Very little,Mon Jun 12 2023 20:46:01 GMT-0400 (Eastern Daylight Time),1686617161554,5.89143333333333,Nutaarmiut,2,Mon Jun 12 2023 20:51:55 GMT-0400 (Eastern Daylight Time),10,10,Nutaarmiut population growth dynamics in the last two decades. Source: Statistics Greenland[2],Nutaarmiut population dynamics,73,17,3,0.6666666666666670,0.7410844564437870,0.8254125118255620,0.7758365869522100,1,1,0,1,1,1,1,1,1,0,1,1
31,Federal political financing in Canada / Private funding / Cost of fundraising,first,,3d bar graphs with transparent black bars of fundraising costs in front and blue 3d bars party-level contributions behind,2,1686617602338,1,prolific/train-0-14152.png,TRUE,,"{'question1': 'False', 'question10': '$0.71', 'question11': '1 to 4', 'question12': 'False', 'question2': 'Great Britain', 'question3': '30-40 km', 'question4': 'True', 'question5': '17.6%', 'question6': 'Shanghai', 'question7': '$6.1', 'question8': '$50.54', 'question9': '40.51 Mbps'}",5e3f6103f5f3e51c95083a52,86534,Moderate,Mon Jun 12 2023 14:41:04 GMT-1000 (Hawaii-Aleutian Standard Time),1686616864101,12.30395,Federal political financing in Canada,0,Mon Jun 12 2023 14:53:22 GMT-1000 (Hawaii-Aleutian Standard Time),11,19,Party-level fundraising costs vs. party-level contributions raised at top three Canadian federal parties in 2009 (source: Elections Canada[4]),Party-level fundraising costs vs. party-level contributions raised at top three Canadian federal parties in 2009,121,24,15,0.5675675675675680,0.5451605319976810,0.5576453804969790,0.9773972630500790,1,1,0,1,1,1,1,1,1,1,1,1
32,Nutaarmiut / Population,first,,simple 2d bar graph by year 1991-2010,2,1686617602338,1,prolific/train-0-42178.png,TRUE,,"{'question1': 'False', 'question10': '$0.71', 'question11': '1 to 4', 'question12': 'False', 'question2': 'Great Britain', 'question3': '30-40 km', 'question4': 'True', 'question5': '17.6%', 'question6': 'Shanghai', 'question7': '$6.1', 'question8': '$50.54', 'question9': '40.51 Mbps'}",5e3f6103f5f3e51c95083a52,60745,Moderate,Mon Jun 12 2023 14:41:04 GMT-1000 (Hawaii-Aleutian Standard Time),1686616864101,12.30395,Nutaarmiut,1,Mon Jun 12 2023 14:53:22 GMT-1000 (Hawaii-Aleutian Standard Time),11,7,Nutaarmiut population growth dynamics in the last two decades. Source: Statistics Greenland[2],Nutaarmiut population dynamics,37,17,3,0.4375,0.258359432220459,0.20716729760170000,0.7758365869522100,1,1,0,1,1,1,1,1,1,1,1,1
33,Nutaarmiut / Population,first,,simple 2d bar graph by year 1991-2010,2,1686617602338,1,prolific/train-0-89137.png,TRUE,,"{'question1': 'False', 'question10': '$0.71', 'question11': '1 to 4', 'question12': 'False', 'question2': 'Great Britain', 'question3': '30-40 km', 'question4': 'True', 'question5': '17.6%', 'question6': 'Shanghai', 'question7': '$6.1', 'question8': '$50.54', 'question9': '40.51 Mbps'}",5e3f6103f5f3e51c95083a52,27674,Moderate,Mon Jun 12 2023 14:41:04 GMT-1000 (Hawaii-Aleutian Standard Time),1686616864101,12.30395,Saqqaq,2,Mon Jun 12 2023 14:53:22 GMT-1000 (Hawaii-Aleutian Standard Time),11,7,Nutaarmiut population growth dynamics in the last two decades. Source: Statistics Greenland[2],Nutaarmiut population dynamics,37,17,3,0.4375,0.258359432220459,0.20716729760170000,0.7758365869522100,1,1,0,1,1,1,1,1,1,1,1,1
34,Nutaarmiut / Population,first,,bar graph that shows population over 20 years. fluctuates from 58 to start and down to 36 at the end. goes up and down in the middle,4,1686617705628,1,prolific/train-0-42178.png,TRUE,english,"{'question1': 'False', 'question10': '$0.71', 'question11': '1 to 2', 'question12': 'False', 'question2': 'Great Britain', 'question3': '30-40 km', 'question4': 'True', 'question5': '17.6%', 'question6': 'Shanghai', 'question7': '$6.1', 'question8': '$50.54', 'question9': '40.51 Mbps'}",614f5734ca61d17940ac78b3,100099,Moderate,Mon Jun 12 2023 20:44:19 GMT-0400 (Eastern Daylight Time),1686617059682,10.7657666666667,Nutaarmiut,0,Mon Jun 12 2023 20:55:05 GMT-0400 (Eastern Daylight Time),12,29,Nutaarmiut population growth dynamics in the last two decades. Source: Statistics Greenland[2],Nutaarmiut population dynamics,132,17,3,0.6,0.4992552101612090,0.48451662063598600,0.7758365869522100,1,1,1,1,1,1,1,1,1,1,1,1
35,Bootham Crescent / Records,first,,line graph that compares highest to average attendance. starts higher then had a downward trend,4,1686617705628,1,prolific/train-0-62319.png,TRUE,english,"{'question1': 'False', 'question10': '$0.71', 'question11': '1 to 2', 'question12': 'False', 'question2': 'Great Britain', 'question3': '30-40 km', 'question4': 'True', 'question5': '17.6%', 'question6': 'Shanghai', 'question7': '$6.1', 'question8': '$50.54', 'question9': '40.51 Mbps'}",614f5734ca61d17940ac78b3,93755,Moderate,Mon Jun 12 2023 20:44:19 GMT-0400 (Eastern Daylight Time),1686617059682,10.7657666666667,Bootham Crescent,1,Mon Jun 12 2023 20:55:05 GMT-0400 (Eastern Daylight Time),12,16,York City's highest and average league attendances at Bootham Crescent from the 1932–33 season,Graph showing the highest and average league attendances at the Bootham Crescent association football ground,95,15,15,0.5,0.3498106002807620,0.6270559430122380,0.6745055317878720,1,1,1,1,1,1,1,1,1,1,1,1
36,History of Georgetown University / Early growth / Early student life,first,,"line graph that shows student enrollment with the university, med school and law school. all fluctuate a lot",4,1686617705628,1,prolific/train-0-75149.png,TRUE,english,"{'question1': 'False', 'question10': '$0.71', 'question11': '1 to 2', 'question12': 'False', 'question2': 'Great Britain', 'question3': '30-40 km', 'question4': 'True', 'question5': '17.6%', 'question6': 'Shanghai', 'question7': '$6.1', 'question8': '$50.54', 'question9': '40.51 Mbps'}",614f5734ca61d17940ac78b3,58237,Moderate,Mon Jun 12 2023 20:44:19 GMT-0400 (Eastern Daylight Time),1686617059682,10.7657666666667,History of Georgetown University,2,Mon Jun 12 2023 20:55:05 GMT-0400 (Eastern Daylight Time),12,20,Graph of student enrollment 1791—1888,"A line graph of years from 1791 to 1888 with three subjects, the first in blue representing the Academy and College rises up from 69 in 1791 to 333 at its peak in 1857 followed by sudden drop and leveling around 200. The second, in red, represents the Medical School and begins in 1851 quickly peaking at 127 and then falling again while the third, in yellow, represents the law school which begins in 1871 and steadily rises to 168.",108,5,87,0.5172413793103450,0.7446454763412480,0.629207193851471,0.6250074505805970,1,1,1,1,1,1,1,1,1,1,1,1
37,Great Southern Group / Fall,first,,"Image is of a chart titled ""Great Southern Group assets"" with years on the x axis and asset value in AUS on the y axis. Total assets is in red and net is in green. Red is within 50,000 of green through 2003, when red increases significantly to a max of 1.8MM in 2008",3,1686617952926,1,prolific/train-0-105181.jpg,TRUE,English,"{'question1': 'False', 'question10': '$0.71', 'question11': '1 to 3', 'question12': 'False', 'question2': 'Great Britain', 'question3': '30-40 km', 'question4': 'True', 'question5': '17.6%', 'question6': 'Shanghai', 'question7': '$5.2', 'question8': '$50.54', 'question9': '40.51 Mbps'}",60fdffb9744ca17b12d3a5f9,134123,Well,Mon Jun 12 2023 20:48:21 GMT-0400 (Eastern Daylight Time),1686617301561,10.8560833333333,Great Southern Group,0,Mon Jun 12 2023 20:59:12 GMT-0400 (Eastern Daylight Time),10,59,"Great Southern Group's assets. Net assets were ultimately limited by the company's ""unsustainable levels"" of debt.[4]","area graph with years on the x-axis, ranging from 1999 to 2008, and thousands of dollars on the y-axis. Two areas are shown: net assets climb until 2005 then stay at a similar level to 2008, below the 800 million dollar line; gross assets climb above net assets and are still increasing in 2008, where they are near the 1.8 billion dollar line",266,25,70,0.5333333333333330,0.5417883396148680,0.5276314616203310,0.34356820583343500,1,1,0,1,1,1,1,1,1,0,1,1
38,Cloture / United States / Procedure,first,,"The chart titled ""Cloture Voting, U.S. Senate, since 1917"" shows years in 1 year increments on the X axis and votes on the Y axis. Cloture invoked, votes on cloture, and cloture motions filed are all measured. All three are low and equal through 1963. Then they fluctuate but cloture motions filed is consistently highest, peaking at 140 in 2007 and coming down since",5,1686617952926,1,prolific/train-0-76637.png,TRUE,English,"{'question1': 'False', 'question10': '$0.71', 'question11': '1 to 3', 'question12': 'False', 'question2': 'Great Britain', 'question3': '30-40 km', 'question4': 'True', 'question5': '17.6%', 'question6': 'Shanghai', 'question7': '$5.2', 'question8': '$50.54', 'question9': '40.51 Mbps'}",60fdffb9744ca17b12d3a5f9,113709,Well,Mon Jun 12 2023 20:48:21 GMT-0400 (Eastern Daylight Time),1686617301561,10.8560833333333,Cloture,1,Mon Jun 12 2023 20:59:12 GMT-0400 (Eastern Daylight Time),10,74,"Cloture voting in the United States Senate , 1917−2014.[43]","Number of cloture motions filed, voted on, and invoked by the U.S. Senate, 1917−2014.",367,13,18,0.574468085106383,0.7509374618530270,0.7397253513336180,0.7685588598251340,1,1,0,1,1,1,1,1,1,0,1,1
39,Bootham Crescent / Records,first,,"The chart titled ""York City F.C.'s league attendances at Bootham Crescent from 1932"" tracks highest and average attendance over time. The X axis is years and the Y axis is attendance. Both fluctuate but are generally trending downwards.",4,1686617952926,1,prolific/train-0-62319.png,TRUE,English,"{'question1': 'False', 'question10': '$0.71', 'question11': '1 to 3', 'question12': 'False', 'question2': 'Great Britain', 'question3': '30-40 km', 'question4': 'True', 'question5': '17.6%', 'question6': 'Shanghai', 'question7': '$5.2', 'question8': '$50.54', 'question9': '40.51 Mbps'}",60fdffb9744ca17b12d3a5f9,68160,Well,Mon Jun 12 2023 20:48:21 GMT-0400 (Eastern Daylight Time),1686617301561,10.8560833333333,Bootham Crescent,2,Mon Jun 12 2023 20:59:12 GMT-0400 (Eastern Daylight Time),10,45,York City's highest and average league attendances at Bootham Crescent from the 1932–33 season,Graph showing the highest and average league attendances at the Bootham Crescent association football ground,236,15,15,0.7567567567567570,0.7408471703529360,0.7169961929321290,0.6745055317878720,1,1,0,1,1,1,1,1,1,0,1,1
40,Cloture / United States / Procedure,first,,"Line graph depicting cloture voting in the United States Senate from 1917-2014. Visualizes three lines: cloture motions filed, votes on cloture, and cloture invokes.",2,1686618016578,1,prolific/train-0-76637.png,FALSE,English,"{'question1': 'False', 'question10': '$0.71', 'question11': '1 to 2', 'question12': 'False', 'question2': 'Great Britain', 'question3': '30-40 km', 'question4': 'True', 'question5': '17.6%', 'question6': 'Shanghai', 'question7': '$6.1', 'question8': '$50.54', 'question9': '40.51 Mbps'}",610095f8a2dcadd3b827b5ef,83777,Well,Mon Jun 12 2023 20:48:39 GMT-0400 (Eastern Daylight Time),1686617319104,11.6245666666667,Cloture,0,Mon Jun 12 2023 21:00:16 GMT-0400 (Eastern Daylight Time),12,29,"Cloture voting in the United States Senate , 1917−2014.[43]","Number of cloture motions filed, voted on, and invoked by the U.S. Senate, 1917−2014.",166,13,18,0.625,0.7333067655563350,0.6520209312438970,0.7685588598251340,1,1,1,1,1,1,1,1,1,1,1,1
41,Ernie Toshack with the Australian cricket team in England in 1948 / Role,first,,"The image is a bar graph showing Ernie Roshack's first-class batting performace during the 1948 England tour. There are pink bars that represent runs scored during first-class innings. The red bars represent Test innings. There are 12 spots for bars to be- in which there are 11. The first 5 are pink, followed by red, pink, red, pink, red, and pink. There is also a blue line going through the last 7 bars indicating the averages.",4,1686618016578,1,prolific/train-0-24640.png,TRUE,English,"{'question1': 'False', 'question10': '$0.71', 'question11': '1 to 2', 'question12': 'False', 'question2': 'Great Britain', 'question3': '30-40 km', 'question4': 'True', 'question5': '17.6%', 'question6': 'Shanghai', 'question7': '$6.1', 'question8': '$50.54', 'question9': '40.51 Mbps'}",610095f8a2dcadd3b827b5ef,170512,Well,Mon Jun 12 2023 20:48:39 GMT-0400 (Eastern Daylight Time),1686617319104,11.6245666666667,Ernie Toshack with the Australian cricket team in England in 1948,1,Mon Jun 12 2023 21:00:16 GMT-0400 (Eastern Daylight Time),12,89,"A chart showing Toshack's batting performance during the tour. The runs scored per innings are represented by the bars, with the red bars being Test innings and the pink bars being other first-class innings. The blue line is the average of the five most recent innings and the dots indicate not outs.[10]","Toshack started the season with five first-class innings outside the Tests, and all were less than 10 and four were less than five, none were not out. He then scored two scores between 15 and 20 in the Tests, with a score of four outside the Tests in between. After scores of 1 and zero not out in the next two tour matches, he scored 12 not out in his third and final Test innings. He then finished with two in a tour match. All of his efforts beyond ten were in Tests, and he passed ten in all three Test innings, two of these being not out.",432,60,119,0.7073170731707320,0.7484798431396480,0.43009352684021000,0.6793749332427980,1,1,1,1,1,1,1,1,1,1,1,1
42,Bootham Crescent / Records,first,,"A line chart indicating the average and highest league attendances at Bootham Crescent from the 1932-2015 seasons. There is a blue line representing the highest attendance, and a black line representing the average for each season.",3,1686618016578,1,prolific/train-0-62319.png,FALSE,English,"{'question1': 'False', 'question10': '$0.71', 'question11': '1 to 2', 'question12': 'False', 'question2': 'Great Britain', 'question3': '30-40 km', 'question4': 'True', 'question5': '17.6%', 'question6': 'Shanghai', 'question7': '$6.1', 'question8': '$50.54', 'question9': '40.51 Mbps'}",610095f8a2dcadd3b827b5ef,125438,Well,Mon Jun 12 2023 20:48:39 GMT-0400 (Eastern Daylight Time),1686617319104,11.6245666666667,Bootham Crescent,2,Mon Jun 12 2023 21:00:16 GMT-0400 (Eastern Daylight Time),12,39,York City's highest and average league attendances at Bootham Crescent from the 1932–33 season,Graph showing the highest and average league attendances at the Bootham Crescent association football ground,232,15,15,0.6578947368421050,0.7566137909889220,0.8051982522010800,0.6745055317878720,1,1,1,1,1,1,1,1,1,1,1,1
43,History of Georgetown University / Early growth / Early student life,first,,"The graph includes Academy and College starting in 1791, Medical School starting in 1851, and Law School starting in 1871",4,1686618163411,1,prolific/train-0-75149.png,TRUE,english,"{'question1': 'False', 'question10': '$0.71', 'question11': '1 to 3', 'question12': 'False', 'question2': 'Great Britain', 'question3': '30-40 km', 'question4': 'True', 'question5': '17.6%', 'question6': 'Shanghai', 'question7': 'Skip', 'question8': '$50.54', 'question9': '40.51 Mbps'}",5fbaaa41780852ac5a8c000b,102204,Well,Mon Jun 12 2023 19:43:41 GMT-0500 (Central Daylight Time),1686617021961,19.0241666666667,History of Georgetown University,0,Mon Jun 12 2023 20:02:43 GMT-0500 (Central Daylight Time),10,22,Graph of student enrollment 1791—1888,"A line graph of years from 1791 to 1888 with three subjects, the first in blue representing the Academy and College rises up from 69 in 1791 to 333 at its peak in 1857 followed by sudden drop and leveling around 200. The second, in red, represents the Medical School and begins in 1851 quickly peaking at 127 and then falling again while the third, in yellow, represents the law school which begins in 1871 and steadily rises to 168.",121,5,87,0.5294117647058820,0.6136054396629330,0.8232847452163700,0.6250074505805970,1,1,0,1,1,1,1,1,1,0,1,1
44,Nutaarmiut / Population,first,,"In 1991 the population was 126. In 1992 it was 152. In 1993 it was 163. 1994, 189. 1995, 188. 1996, 203. 1997, 212. 1998, 202. 1999, 211. 2000, 198. 2001, 196. 2002, 214. 2003, 185. 2004, 177. 2005, 180. 2006, 183. 2007, 190. 2008, 173. 2009, 173. 2010, 188.",2,1686618163411,1,prolific/train-0-89137.png,TRUE,english,"{'question1': 'False', 'question10': '$0.71', 'question11': '1 to 3', 'question12': 'False', 'question2': 'Great Britain', 'question3': '30-40 km', 'question4': 'True', 'question5': '17.6%', 'question6': 'Shanghai', 'question7': 'Skip', 'question8': '$50.54', 'question9': '40.51 Mbps'}",5fbaaa41780852ac5a8c000b,329368,Well,Mon Jun 12 2023 19:43:41 GMT-0500 (Central Daylight Time),1686617021961,19.0241666666667,Saqqaq,1,Mon Jun 12 2023 20:02:43 GMT-0500 (Central Daylight Time),10,87,Nutaarmiut population growth dynamics in the last two decades. Source: Statistics Greenland[2],Nutaarmiut population dynamics,258,17,3,0.39473684210526300,0.348520427942276,0.38615816831588700,0.7758365869522100,1,1,0,1,1,1,1,1,1,0,1,1
45,Cloture / United States / Procedure,first,,"The graph includes cloture motions filed peaking at 140 in 2007-2008, votes on cloture peaking at 110 in 2007-2008, and cloture invoked peaking at approximately 61 in 2009-2010.",5,1686618163411,1,prolific/train-0-76637.png,TRUE,english,"{'question1': 'False', 'question10': '$0.71', 'question11': '1 to 3', 'question12': 'False', 'question2': 'Great Britain', 'question3': '30-40 km', 'question4': 'True', 'question5': '17.6%', 'question6': 'Shanghai', 'question7': 'Skip', 'question8': '$50.54', 'question9': '40.51 Mbps'}",5fbaaa41780852ac5a8c000b,145037,Well,Mon Jun 12 2023 19:43:41 GMT-0500 (Central Daylight Time),1686617021961,19.0241666666667,Cloture,2,Mon Jun 12 2023 20:02:43 GMT-0500 (Central Daylight Time),10,31,"Cloture voting in the United States Senate , 1917−2014.[43]","Number of cloture motions filed, voted on, and invoked by the U.S. Senate, 1917−2014.",177,13,18,0.5609756097560980,0.4887271225452420,0.5098680257797240,0.7685588598251340,1,1,0,1,1,1,1,1,1,0,1,1
46,History of Georgetown University / Early growth / Early student life,first,,"Enrollment grew over time for Academy & College and Law School, while enrollment fell and rose again for medical school. Enrollment is volatile.",5,1686618419585,1,prolific/train-0-75149.png,TRUE,English,"{'question1': 'False', 'question10': '$0.71', 'question11': '1 to 3', 'question12': 'False', 'question2': 'Great Britain', 'question3': '30-40 km', 'question4': 'True', 'question5': '17.6%', 'question6': 'Shanghai', 'question7': '$6.1', 'question8': '$50.54', 'question9': '40.51 Mbps'}",631e4eaec6b4eb65bfc51709,80671,Little,Mon Jun 12 2023 20:57:04 GMT-0400 (Eastern Daylight Time),1686617824373,9.9202,History of Georgetown University,0,Mon Jun 12 2023 21:06:59 GMT-0400 (Eastern Daylight Time),11,26,Graph of student enrollment 1791—1888,"A line graph of years from 1791 to 1888 with three subjects, the first in blue representing the Academy and College rises up from 69 in 1791 to 333 at its peak in 1857 followed by sudden drop and leveling around 200. The second, in red, represents the Medical School and begins in 1851 quickly peaking at 127 and then falling again while the third, in yellow, represents the law school which begins in 1871 and steadily rises to 168.",144,5,87,0.37142857142857100,0.4720582962036130,0.5936214923858640,0.6250074505805970,1,1,0,1,1,1,1,1,1,1,1,1
47,Bootham Crescent / Records,first,,Two time series are displayed: Highest with mean approximately 10000 and Average with mean approximately 5000.,5,1686618419585,1,prolific/train-0-62319.png,TRUE,English,"{'question1': 'False', 'question10': '$0.71', 'question11': '1 to 3', 'question12': 'False', 'question2': 'Great Britain', 'question3': '30-40 km', 'question4': 'True', 'question5': '17.6%', 'question6': 'Shanghai', 'question7': '$6.1', 'question8': '$50.54', 'question9': '40.51 Mbps'}",631e4eaec6b4eb65bfc51709,53008,Little,Mon Jun 12 2023 20:57:04 GMT-0400 (Eastern Daylight Time),1686617824373,9.9202,Bootham Crescent,1,Mon Jun 12 2023 21:06:59 GMT-0400 (Eastern Daylight Time),11,18,York City's highest and average league attendances at Bootham Crescent from the 1932–33 season,Graph showing the highest and average league attendances at the Bootham Crescent association football ground,110,15,15,0.4358974358974360,0.13028010725975000,0.30091309547424300,0.6745055317878720,1,1,0,1,1,1,1,1,1,1,1,1
48,Anatomy of an Epidemic / Synopsis / Magic bullets,first,,More Americans received SSDI and SSI for mental disability in 2003 than in 1987 and not many SSDI recipients also received an SSI payment.,5,1686618419585,1,prolific/train-0-29695.png,TRUE,English,"{'question1': 'False', 'question10': '$0.71', 'question11': '1 to 3', 'question12': 'False', 'question2': 'Great Britain', 'question3': '30-40 km', 'question4': 'True', 'question5': '17.6%', 'question6': 'Shanghai', 'question7': '$6.1', 'question8': '$50.54', 'question9': '40.51 Mbps'}",631e4eaec6b4eb65bfc51709,112647,Little,Mon Jun 12 2023 20:57:04 GMT-0400 (Eastern Daylight Time),1686617824373,9.9202,Anatomy of an Epidemic,2,Mon Jun 12 2023 21:06:59 GMT-0400 (Eastern Daylight Time),11,25,"Number of Americans who received SSDI and SSI for mental disability in 1987 (blue) when Eli Lilly and Company introduced the antidepressive drug Prozac, compared to 2003 (red).",Chart showing increase (in red) over baseline (in blue) between 1987 and 2003,138,34,17,0.7045454545454550,0.7114145755767820,0.17150837182998700,0.1799975037574770,1,1,0,1,1,1,1,1,1,1,1,1
49,Great Southern Group / Fall,first,,A graph of Great Southern Group assets.  It shows their net and total assets from 1999 to 2008.,3,1686618623311,1,prolific/train-0-105181.jpg,TRUE,English,"{'question1': 'False', 'question10': '$0.71', 'question11': 'Skip', 'question12': 'Skip', 'question2': 'Great Britain', 'question3': '30-40 km', 'question4': 'True', 'question5': '17.6%', 'question6': 'Shanghai', 'question7': '$5.2', 'question8': '$50.54', 'question9': '42.30 Mbps'}",56bae08f30d6b30005f8537a,37347,Little,Mon Jun 12 2023 17:16:57 GMT-0700 (Pacific Daylight Time),1686615417165,53.4357666666667,Great Southern Group,0,Mon Jun 12 2023 18:10:23 GMT-0700 (Pacific Daylight Time),8,20,"Great Southern Group's assets. Net assets were ultimately limited by the company's ""unsustainable levels"" of debt.[4]","area graph with years on the x-axis, ranging from 1999 to 2008, and thousands of dollars on the y-axis. Two areas are shown: net assets climb until 2005 then stay at a similar level to 2008, below the 800 million dollar line; gross assets climb above net assets and are still increasing in 2008, where they are near the 1.8 billion dollar line",95,25,70,0.5263157894736840,0.6727008819580080,0.5840213298797610,0.34356820583343500,1,1,0,0,1,1,1,1,1,0,1,0
50,History of Georgetown University / Early growth / Early student life,first,,"A graph showing Georgetown University Enrollment from 1791 to 1888.  It shows Academy and College, Medical School, and Law School enrollments.",2,1686618623311,1,prolific/train-0-75149.png,TRUE,English,"{'question1': 'False', 'question10': '$0.71', 'question11': 'Skip', 'question12': 'Skip', 'question2': 'Great Britain', 'question3': '30-40 km', 'question4': 'True', 'question5': '17.6%', 'question6': 'Shanghai', 'question7': '$5.2', 'question8': '$50.54', 'question9': '42.30 Mbps'}",56bae08f30d6b30005f8537a,117743,Little,Mon Jun 12 2023 17:16:57 GMT-0700 (Pacific Daylight Time),1686615417165,53.4357666666667,History of Georgetown University,1,Mon Jun 12 2023 18:10:23 GMT-0700 (Pacific Daylight Time),8,25,Graph of student enrollment 1791—1888,"A line graph of years from 1791 to 1888 with three subjects, the first in blue representing the Academy and College rises up from 69 in 1791 to 333 at its peak in 1857 followed by sudden drop and leveling around 200. The second, in red, represents the Medical School and begins in 1851 quickly peaking at 127 and then falling again while the third, in yellow, represents the law school which begins in 1871 and steadily rises to 168.",142,5,87,0.5135135135135140,0.8075344562530520,0.6786019802093510,0.6250074505805970,1,1,0,0,1,1,1,1,1,0,1,0
51,Nutaarmiut / Population,first,,A bar graph displaying Nutarrmiut population over the years of 1991 to 2010.,3,1686618623311,1,prolific/train-0-89137.png,TRUE,English,"{'question1': 'False', 'question10': '$0.71', 'question11': 'Skip', 'question12': 'Skip', 'question2': 'Great Britain', 'question3': '30-40 km', 'question4': 'True', 'question5': '17.6%', 'question6': 'Shanghai', 'question7': '$5.2', 'question8': '$50.54', 'question9': '42.30 Mbps'}",56bae08f30d6b30005f8537a,63928,Little,Mon Jun 12 2023 17:16:57 GMT-0700 (Pacific Daylight Time),1686615417165,53.4357666666667,Saqqaq,2,Mon Jun 12 2023 18:10:23 GMT-0700 (Pacific Daylight Time),8,14,Nutaarmiut population growth dynamics in the last two decades. Source: Statistics Greenland[2],Nutaarmiut population dynamics,76,17,3,0.5882352941176470,0.6191670298576360,0.7054927945137020,0.7758365869522100,1,1,0,0,1,1,1,1,1,0,1,0
52,Great Southern Group / Fall,first,,"Steady rise from $200,000 in 1999 to a peak of $1.8m in 2008",2,1686618649822,1,prolific/train-0-105181.jpg,TRUE,English,"{'question1': 'False', 'question10': '$0.71', 'question11': 'Skip', 'question12': 'Skip', 'question2': 'Great Britain', 'question3': '30-40 km', 'question4': 'True', 'question5': '25.3%', 'question6': 'Skip', 'question7': 'Skip', 'question8': '$50.54', 'question9': '40.51 Mbps'}",6479f2a05e037dbc74dc027d,170300,Very little,Tue Jun 13 2023 01:50:49 GMT+0100 (West Africa Standard Time),1686617449498,20.0054,Great Southern Group,0,Tue Jun 13 2023 02:10:49 GMT+0100 (West Africa Standard Time),7,15,"Great Southern Group's assets. Net assets were ultimately limited by the company's ""unsustainable levels"" of debt.[4]","area graph with years on the x-axis, ranging from 1999 to 2008, and thousands of dollars on the y-axis. Two areas are shown: net assets climb until 2005 then stay at a similar level to 2008, below the 800 million dollar line; gross assets climb above net assets and are still increasing in 2008, where they are near the 1.8 billion dollar line",60,25,70,0.42105263157894700,0.21317167580127700,0.5284435153007510,0.34356820583343500,1,1,0,0,1,1,1,0,0,0,1,1
53,Federal political financing in Canada / Private funding / Cost of fundraising,first,,"The conservative party is shown to have $19 fundraising cost, Liberal party has $9, New Democratic party has $4, and the total top 3 parties have $30.",4,1686618649822,1,prolific/train-0-14152.png,TRUE,English,"{'question1': 'False', 'question10': '$0.71', 'question11': 'Skip', 'question12': 'Skip', 'question2': 'Great Britain', 'question3': '30-40 km', 'question4': 'True', 'question5': '25.3%', 'question6': 'Skip', 'question7': 'Skip', 'question8': '$50.54', 'question9': '40.51 Mbps'}",6479f2a05e037dbc74dc027d,354301,Very little,Tue Jun 13 2023 01:50:49 GMT+0100 (West Africa Standard Time),1686617449498,20.0054,Federal political financing in Canada,1,Tue Jun 13 2023 02:10:49 GMT+0100 (West Africa Standard Time),7,35,Party-level fundraising costs vs. party-level contributions raised at top three Canadian federal parties in 2009 (source: Elections Canada[4]),Party-level fundraising costs vs. party-level contributions raised at top three Canadian federal parties in 2009,150,24,15,0.5454545454545450,0.6876143217086790,0.6834850907325750,0.9773972630500790,1,1,0,0,1,1,1,0,0,0,1,1
54,Bootham Crescent / Records,first,,"The attendance rises from below 5000 and peaks at 22000, then begins to fluctuate until it drops up 4000 again.",5,1686618649822,1,prolific/train-0-62319.png,TRUE,English,"{'question1': 'False', 'question10': '$0.71', 'question11': 'Skip', 'question12': 'Skip', 'question2': 'Great Britain', 'question3': '30-40 km', 'question4': 'True', 'question5': '25.3%', 'question6': 'Skip', 'question7': 'Skip', 'question8': '$50.54', 'question9': '40.51 Mbps'}",6479f2a05e037dbc74dc027d,78656,Very little,Tue Jun 13 2023 01:50:49 GMT+0100 (West Africa Standard Time),1686617449498,20.0054,Bootham Crescent,2,Tue Jun 13 2023 02:10:49 GMT+0100 (West Africa Standard Time),7,22,York City's highest and average league attendances at Bootham Crescent from the 1932–33 season,Graph showing the highest and average league attendances at the Bootham Crescent association football ground,111,15,15,0.5,0.22555020451545700,0.4348030686378480,0.6745055317878720,1,1,0,0,1,1,1,0,0,0,1,1
55,History of Georgetown University / Early growth / Early student life,first,,line graph showing changes in enrollment for Georgetown University between 1791-1888 with the year on the x axis and the number of students on the y axis,1,1686618680513,1,prolific/train-0-75149.png,TRUE,english,"{'question1': 'False', 'question10': '$0.71', 'question11': '1 to 2', 'question12': 'False', 'question2': 'Great Britain', 'question3': '30-40 km', 'question4': 'True', 'question5': '35.2%', 'question6': 'Shanghai', 'question7': '$7.5', 'question8': '$50.54', 'question9': '40.51 Mbps'}",64878a5d500947c9341510b8,90122,Well,Mon Jun 12 2023 19:56:56 GMT-0500 (Central Daylight Time),1686617816436,14.4012833333333,History of Georgetown University,0,Mon Jun 12 2023 20:11:20 GMT-0500 (Central Daylight Time),10,27,Graph of student enrollment 1791—1888,"A line graph of years from 1791 to 1888 with three subjects, the first in blue representing the Academy and College rises up from 69 in 1791 to 333 at its peak in 1857 followed by sudden drop and leveling around 200. The second, in red, represents the Medical School and begins in 1851 quickly peaking at 127 and then falling again while the third, in yellow, represents the law school which begins in 1871 and steadily rises to 168.",153,5,87,0.6451612903225810,0.8189666271209720,0.6099436283111570,0.6250074505805970,1,1,1,1,1,1,1,0,1,0,1,1
56,Great Southern Group / Fall,first,,line graph depicting Great Southern Group assets by year from 1999-2008. Total assets and net assets are plotted on the same chart to show that net assets lag considerably behind total assets beginning in 2004.,4,1686618680513,1,prolific/train-0-105181.jpg,TRUE,english,"{'question1': 'False', 'question10': '$0.71', 'question11': '1 to 2', 'question12': 'False', 'question2': 'Great Britain', 'question3': '30-40 km', 'question4': 'True', 'question5': '35.2%', 'question6': 'Shanghai', 'question7': '$7.5', 'question8': '$50.54', 'question9': '40.51 Mbps'}",64878a5d500947c9341510b8,146968,Well,Mon Jun 12 2023 19:56:56 GMT-0500 (Central Daylight Time),1686617816436,14.4012833333333,Great Southern Group,1,Mon Jun 12 2023 20:11:20 GMT-0500 (Central Daylight Time),10,37,"Great Southern Group's assets. Net assets were ultimately limited by the company's ""unsustainable levels"" of debt.[4]","area graph with years on the x-axis, ranging from 1999 to 2008, and thousands of dollars on the y-axis. Two areas are shown: net assets climb until 2005 then stay at a similar level to 2008, below the 800 million dollar line; gross assets climb above net assets and are still increasing in 2008, where they are near the 1.8 billion dollar line",210,25,70,0.631578947368421,0.5932037830352780,0.648614227771759,0.34356820583343500,1,1,1,1,1,1,1,0,1,0,1,1
57,Bootham Crescent / Records,first,,line graphs depicting York City FCs league attendance at Bootham Crescent from 1932 through 2012.  Two lines are shown - one depicting the highest attendance and one depicting the average attendance.Year is shown on the x axis and attendance is shown on the y axis.,4,1686618680513,1,prolific/train-0-62319.png,TRUE,english,"{'question1': 'False', 'question10': '$0.71', 'question11': '1 to 2', 'question12': 'False', 'question2': 'Great Britain', 'question3': '30-40 km', 'question4': 'True', 'question5': '35.2%', 'question6': 'Shanghai', 'question7': '$7.5', 'question8': '$50.54', 'question9': '40.51 Mbps'}",64878a5d500947c9341510b8,159257,Well,Mon Jun 12 2023 19:56:56 GMT-0500 (Central Daylight Time),1686617816436,14.4012833333333,Bootham Crescent,2,Mon Jun 12 2023 20:11:20 GMT-0500 (Central Daylight Time),10,47,York City's highest and average league attendances at Bootham Crescent from the 1932–33 season,Graph showing the highest and average league attendances at the Bootham Crescent association football ground,265,15,15,0.7297297297297300,0.7365883588790890,0.7609890699386600,0.6745055317878720,1,1,1,1,1,1,1,0,1,0,1,1
58,Nutaarmiut / Population,first,,There is a graph with thick blue lines. They have the years across the bottom of the graph that are from 1991 to 2010. Each year has a thick blue line coming from it that has a number above the blue line. The lowest number on the graph is 126 with the highest number being 214.,3,1686619136652,1,prolific/train-0-89137.png,TRUE,english,"{'question1': 'False', 'question10': '$0.71', 'question11': '1 to 2', 'question12': 'False', 'question2': 'Great Britain', 'question3': '30-40 km', 'question4': 'True', 'question5': '17.6%', 'question6': 'Seoul', 'question7': '$4.5', 'question8': '$50.54', 'question9': '40.51 Mbps'}",634694a1401b066cb71e4c82,179117,Well,Mon Jun 12 2023 20:43:37 GMT-0400 (Eastern Daylight Time),1686617017321,35.3221833333333,Saqqaq,0,Mon Jun 12 2023 21:18:56 GMT-0400 (Eastern Daylight Time),10,60,Nutaarmiut population growth dynamics in the last two decades. Source: Statistics Greenland[2],Nutaarmiut population dynamics,277,17,3,0.5263157894736840,0.22897392511367800,0.20139504969120000,0.7758365869522100,1,1,1,1,1,1,1,1,0,0,1,1
59,Nutaarmiut / Population,second,,"There is a graph with thick blue lines that connect to a year and the growth that year had. Here is the and number for each year.
1991=126
1992=152
1993=163
1994=189
1995=188
1996=203
1997=212
1998=202
1999=211
2000=198
2001=196
2002=214
2003=185
2004=177
2005=180
2006=183
2007=190
2008=173
2009=173
2010=188",3,1686619136652,1,prolific/train-0-89137.png,TRUE,english,"{'question1': 'False', 'question10': '$0.71', 'question11': '1 to 2', 'question12': 'False', 'question2': 'Great Britain', 'question3': '30-40 km', 'question4': 'True', 'question5': '17.6%', 'question6': 'Seoul', 'question7': '$4.5', 'question8': '$50.54', 'question9': '40.51 Mbps'}",634694a1401b066cb71e4c82,318623,Well,Mon Jun 12 2023 20:43:37 GMT-0400 (Eastern Daylight Time),1686617017321,35.3221833333333,Saqqaq,0,Mon Jun 12 2023 21:18:56 GMT-0400 (Eastern Daylight Time),10,49,Nutaarmiut population growth dynamics in the last two decades. Source: Statistics Greenland[2],Nutaarmiut population dynamics,309,17,3,0.4883720930232560,0.39239323139190700,0.3255293369293210,0.7758365869522100,1,1,1,1,1,1,1,1,0,0,1,1
60,Bootham Crescent / Records,first,,There is a line graph. On the side it has the attendance number that goes from 0 to 25000. On the bottom of the graph is shows the years form 1932 to 2015. The graph shows that average attendance peaked in 1948 and 1954. The lowest average attendance was in 1932 and 2015. The attendance had a steady decline from 1948 to 2015.,4,1686619136652,1,prolific/train-0-62319.png,TRUE,english,"{'question1': 'False', 'question10': '$0.71', 'question11': '1 to 2', 'question12': 'False', 'question2': 'Great Britain', 'question3': '30-40 km', 'question4': 'True', 'question5': '17.6%', 'question6': 'Seoul', 'question7': '$4.5', 'question8': '$50.54', 'question9': '40.51 Mbps'}",634694a1401b066cb71e4c82,278417,Well,Mon Jun 12 2023 20:43:37 GMT-0400 (Eastern Daylight Time),1686617017321,35.3221833333333,Bootham Crescent,1,Mon Jun 12 2023 21:18:56 GMT-0400 (Eastern Daylight Time),10,69,York City's highest and average league attendances at Bootham Crescent from the 1932–33 season,Graph showing the highest and average league attendances at the Bootham Crescent association football ground,327,15,15,0.6153846153846150,0.4700072407722470,0.5978348851203920,0.6745055317878720,1,1,1,1,1,1,1,1,0,0,1,1
61,Federal political financing in Canada / Private funding / Cost of fundraising,first,,"The image is a graph with two separate parts to it.
On the left side of the graph it shows the funds raised from 0 to 30 million. On the bottom of the graph it shows the names of the parties. They are form left to right: Conservative Party, Liberal Party, New Democratic Party, and the last is Total(top 3 parties). The graph has two different color blocks representing different things. Grey=fundraising expenses
Blue=subsidized contributions raised.
Here is what the graph says for each party and then last the total for all.
Conservative Party: grey=7 million blue=17.7 million
Liberal Party: grey=2 million blue=9.06 million
New Democratic Party: grey=2 million blue= 4.01 million
Total(top 3 parties: grey=11.19 million blue=30.77 million",4,1686619136652,1,prolific/train-0-14152.png,TRUE,english,"{'question1': 'False', 'question10': '$0.71', 'question11': '1 to 2', 'question12': 'False', 'question2': 'Great Britain', 'question3': '30-40 km', 'question4': 'True', 'question5': '17.6%', 'question6': 'Seoul', 'question7': '$4.5', 'question8': '$50.54', 'question9': '40.51 Mbps'}",634694a1401b066cb71e4c82,672832,Well,Mon Jun 12 2023 20:43:37 GMT-0400 (Eastern Daylight Time),1686617017321,35.3221833333333,Federal political financing in Canada,2,Mon Jun 12 2023 21:18:56 GMT-0400 (Eastern Daylight Time),10,139,Party-level fundraising costs vs. party-level contributions raised at top three Canadian federal parties in 2009 (source: Elections Canada[4]),Party-level fundraising costs vs. party-level contributions raised at top three Canadian federal parties in 2009,743,24,15,0.5555555555555560,0.48158377408981300,0.48959317803382900,0.9773972630500790,1,1,1,1,1,1,1,1,0,0,1,1
62,Great Southern Group / Fall,first,,"Great Southern Group assets started at net assets and total assets below 200,000 in 1999. Both assets stayed around 200,000 till 2003. Net assets started to grow gradually to 800,000 in 2005. Total assets increased to 1,000,000 in 2005. Since then, net assets stayed the same around 800,000, total assets worth 1,800,000 in 2008.",4,1686619784041,1,prolific/train-0-105181.jpg,FALSE,Chinese,"{'question1': 'False', 'question10': '$0.71', 'question11': '1 to 2', 'question12': 'False', 'question2': 'Great Britain', 'question3': '30-40 km', 'question4': 'True', 'question5': '17.6%', 'question6': 'Shanghai', 'question7': '$6.1', 'question8': '$50.54', 'question9': '40.51 Mbps'}",614b76b790f0bdbc64a06cee,516353,Very little,Mon Jun 12 2023 20:55:19 GMT-0400 (Eastern Daylight Time),1686617719770,34.4045166666667,Great Southern Group,0,Mon Jun 12 2023 21:29:44 GMT-0400 (Eastern Daylight Time),12,61,"Great Southern Group's assets. Net assets were ultimately limited by the company's ""unsustainable levels"" of debt.[4]","area graph with years on the x-axis, ranging from 1999 to 2008, and thousands of dollars on the y-axis. Two areas are shown: net assets climb until 2005 then stay at a similar level to 2008, below the 800 million dollar line; gross assets climb above net assets and are still increasing in 2008, where they are near the 1.8 billion dollar line",329,25,70,0.5609756097560980,0.799030065536499,0.47618067264556900,0.34356820583343500,1,1,1,1,1,1,1,1,1,1,1,1
63,Nutaarmiut / Population,first,,"Nutaarmiut population varied over the time, with lowest 126 in 1991, highest 214 in 2002.",5,1686619784041,1,prolific/train-0-89137.png,FALSE,Chinese,"{'question1': 'False', 'question10': '$0.71', 'question11': '1 to 2', 'question12': 'False', 'question2': 'Great Britain', 'question3': '30-40 km', 'question4': 'True', 'question5': '17.6%', 'question6': 'Shanghai', 'question7': '$6.1', 'question8': '$50.54', 'question9': '40.51 Mbps'}",614b76b790f0bdbc64a06cee,194407,Very little,Mon Jun 12 2023 20:55:19 GMT-0400 (Eastern Daylight Time),1686617719770,34.4045166666667,Saqqaq,1,Mon Jun 12 2023 21:29:44 GMT-0400 (Eastern Daylight Time),12,18,Nutaarmiut population growth dynamics in the last two decades. Source: Statistics Greenland[2],Nutaarmiut population dynamics,90,17,3,0.5882352941176470,0.5938072204589840,0.7015308141708370,0.7758365869522100,1,1,1,1,1,1,1,1,1,1,1,1
64,Cloture / United States / Procedure,first,,"Cloture voting stay low from 1917 to 1968. Then gradually increased with a few spikes in 1973-1974, 1987-1988. The highest was 140 in 2007-2008",5,1686619784041,1,prolific/train-0-76637.png,FALSE,Chinese,"{'question1': 'False', 'question10': '$0.71', 'question11': '1 to 2', 'question12': 'False', 'question2': 'Great Britain', 'question3': '30-40 km', 'question4': 'True', 'question5': '17.6%', 'question6': 'Shanghai', 'question7': '$6.1', 'question8': '$50.54', 'question9': '40.51 Mbps'}",614b76b790f0bdbc64a06cee,345934,Very little,Mon Jun 12 2023 20:55:19 GMT-0400 (Eastern Daylight Time),1686617719770,34.4045166666667,Cloture,2,Mon Jun 12 2023 21:29:44 GMT-0400 (Eastern Daylight Time),12,27,"Cloture voting in the United States Senate , 1917−2014.[43]","Number of cloture motions filed, voted on, and invoked by the U.S. Senate, 1917−2014.",143,13,18,0.6097560975609760,0.6848497986793520,0.5074211955070500,0.7685588598251340,1,1,1,1,1,1,1,1,1,1,1,1
65,Near-infrared window in biological tissue / Absorption properties of tissue components / Water,first,,A line graph with Molecular extinction coefficient on the y axis and wavelength on the x axis. The blue decreasing line represents eumelanin and the red decreasing line represents pheomelanin,1,1686620847452,1,prolific/train-0-201657.png,TRUE,English,"{'question1': 'False', 'question10': '$0.71', 'question11': '1 to 2', 'question12': 'True', 'question2': 'Great Britain', 'question3': '30-40 km', 'question4': 'True', 'question5': '17.6%', 'question6': 'Shanghai', 'question7': '$7.5', 'question8': '$50.54', 'question9': '40.51 Mbps'}",62e3fc91bf734f6dbbc0ca15,102119,Very little,Mon Jun 12 2023 21:33:04 GMT-0400 (Eastern Daylight Time),1686619984106,14.3891,Near-infrared window in biological tissue,0,Mon Jun 12 2023 21:47:27 GMT-0400 (Eastern Daylight Time),10,31,Figure 3: The molar extinction coefficients of eumelanin and pheomelanin.[5],Figure 3: Figure 3: The molar extinction coefficients of eumelanin and pheomelanin.,191,15,15,0.6363636363636360,0.6856175661087040,0.696099042892456,0.9823436141014100,1,1,1,0,1,1,1,1,1,0,1,1
66,Nanortalik / Population,first,,This is a bar graph with the year on the x axis and the population on the y axis. The years range from 1991 to 2010.,2,1686620847452,1,prolific/train-0-370954.png,TRUE,English,"{'question1': 'False', 'question10': '$0.71', 'question11': '1 to 2', 'question12': 'True', 'question2': 'Great Britain', 'question3': '30-40 km', 'question4': 'True', 'question5': '17.6%', 'question6': 'Shanghai', 'question7': '$7.5', 'question8': '$50.54', 'question9': '40.51 Mbps'}",62e3fc91bf734f6dbbc0ca15,107080,Very little,Mon Jun 12 2023 21:33:04 GMT-0400 (Eastern Daylight Time),1686619984106,14.3891,Ikerasaarsuk,1,Mon Jun 12 2023 21:47:27 GMT-0400 (Eastern Daylight Time),10,28,"Nanortalik population growth dynamics, 1991-2010. Source: Statistics Greenland[12]",Nanortalik population dynamics,117,14,3,0.6216216216216220,0.36029452085495000,0.24494539201259600,0.7891201972961430,1,1,1,0,1,1,1,1,1,0,1,1
67,Nanortalik / Population,second,,This is a bar graph with the year on the x axis and the population on the y axis. The years range from 1991 to 2010. The population increases until 2000 and fluctuates until 2010,2,1686620847452,1,prolific/train-0-370954.png,TRUE,English,"{'question1': 'False', 'question10': '$0.71', 'question11': '1 to 2', 'question12': 'True', 'question2': 'Great Britain', 'question3': '30-40 km', 'question4': 'True', 'question5': '17.6%', 'question6': 'Shanghai', 'question7': '$7.5', 'question8': '$50.54', 'question9': '40.51 Mbps'}",62e3fc91bf734f6dbbc0ca15,47135,Very little,Mon Jun 12 2023 21:33:04 GMT-0400 (Eastern Daylight Time),1686619984106,14.3891,Ikerasaarsuk,1,Mon Jun 12 2023 21:47:27 GMT-0400 (Eastern Daylight Time),10,37,"Nanortalik population growth dynamics, 1991-2010. Source: Statistics Greenland[12]",Nanortalik population dynamics,178,14,3,0.6486486486486490,0.41912010312080400,0.30113816261291500,0.7891201972961430,1,1,1,0,1,1,1,1,1,0,1,1
68,Elections in Croatia / Parliamentary elections / Previous parliamentary elections,first,,This is a line graph with the the number of elections on the y axis and the year on the x axis. The lines on the graph vary but there are 7 lines total,5,1686620847452,1,prolific/train-0-472392.png,TRUE,English,"{'question1': 'False', 'question10': '$0.71', 'question11': '1 to 2', 'question12': 'True', 'question2': 'Great Britain', 'question3': '30-40 km', 'question4': 'True', 'question5': '17.6%', 'question6': 'Shanghai', 'question7': '$7.5', 'question8': '$50.54', 'question9': '40.51 Mbps'}",62e3fc91bf734f6dbbc0ca15,76998,Very little,Mon Jun 12 2023 21:33:04 GMT-0400 (Eastern Daylight Time),1686619984106,14.3891,Elections in Croatia,2,Mon Jun 12 2023 21:47:27 GMT-0400 (Eastern Daylight Time),10,35,"Croatian parliamentary election results, 1992–2016; parties winning 10 or more seats in any one election shown individually","Graph of Croatian election results, using differently-colored lines",151,19,9,0.5714285714285710,0.22918760776519800,0.5708726644515990,0.5574201345443730,1,1,1,0,1,1,1,1,1,0,1,1
69,European debt crisis / Evolution of the crisis / Portugal,first,,This graph shows the debt in percentage of GDP from 1999 to 2019 for Portugal and the Eurozone average.,2,1686620968188,1,prolific/train-0-191651.png,TRUE,English,"{'question1': 'False', 'question10': '$0.71', 'question11': 'Skip', 'question12': 'False', 'question2': 'Great Britain', 'question3': '30-40 km', 'question4': 'True', 'question5': '17.6%', 'question6': 'Shanghai', 'question7': '$6.1', 'question8': '$50.54', 'question9': '40.51 Mbps'}",602bdfdfc083e33c4e571be9,48008,Little,Mon Jun 12 2023 20:42:17 GMT-0500 (Central Daylight Time),1686620537155,7.18388333333333,European debt crisis,0,Mon Jun 12 2023 20:49:28 GMT-0500 (Central Daylight Time),11,20,Debt of Portugal compared to eurozone average since 1999,Portuguese debt compared to eurozone average,103,9,6,0.75,0.8471189141273500,0.7804189920425420,0.9214153289794920,1,1,0,1,1,1,1,1,1,1,1,1
70,Rotaviral gastroenteritis / Epidemiology,first,,Every march of each year there is a spike in rotavirus A infections in England,3,1686620968188,1,prolific/train-0-205301.png,TRUE,English,"{'question1': 'False', 'question10': '$0.71', 'question11': 'Skip', 'question12': 'False', 'question2': 'Great Britain', 'question3': '30-40 km', 'question4': 'True', 'question5': '17.6%', 'question6': 'Shanghai', 'question7': '$6.1', 'question8': '$50.54', 'question9': '40.51 Mbps'}",602bdfdfc083e33c4e571be9,43969,Little,Mon Jun 12 2023 20:42:17 GMT-0500 (Central Daylight Time),1686620537155,7.18388333333333,Rotaviral gastroenteritis,1,Mon Jun 12 2023 20:49:28 GMT-0500 (Central Daylight Time),11,15,The seasonal variation of rotavirus A infections in a region of England: rates of infection peak during the winter months.,A line graph with the months and years on the x-axis and the number of infections on the y-axis. The peaks in the line correspond to the winter months of the northern hemisphere.,78,22,35,0.8148148148148150,0.8653287887573240,0.3955221474170690,0.4052831530570980,1,1,0,1,1,1,1,1,1,1,1,1
71,Single crossing condition,first,,"There are two functions, f(x) in red and g(x) in blue they are in line form from the values x=-4 thorugh x=4",4,1686620968188,1,prolific/train-0-307125.png,TRUE,English,"{'question1': 'False', 'question10': '$0.71', 'question11': 'Skip', 'question12': 'False', 'question2': 'Great Britain', 'question3': '30-40 km', 'question4': 'True', 'question5': '17.6%', 'question6': 'Shanghai', 'question7': '$6.1', 'question8': '$50.54', 'question9': '40.51 Mbps'}",602bdfdfc083e33c4e571be9,40455,Little,Mon Jun 12 2023 20:42:17 GMT-0500 (Central Daylight Time),1686620537155,7.18388333333333,Single crossing condition,2,Mon Jun 12 2023 20:49:28 GMT-0500 (Central Daylight Time),11,29,Example of two cumulative distribution functions F(x) and G(x) which satisfy the single-crossing condition.,Example of two normal cumulative distribution functions F(x) and G(x) which satisfy the single-crossing condition.,108,21,22,0.7352941176470590,0.40597888827323900,0.3750705122947690,0.9410582780838010,1,1,0,1,1,1,1,1,1,1,1,1
72,Near-infrared window in biological tissue / Absorption properties of tissue components / Water,first,,"A graph showing molecular coefficient. A blue line representing ""Eumelanin"" A red line representing  ""Pheomelanin""  ",3,1686621193495,1,prolific/train-0-201657.png,TRUE,English,"{'question1': 'False', 'question10': '$0.71', 'question11': '1 to 3', 'question12': 'True', 'question2': 'Great Britain', 'question3': '30-40 km', 'question4': 'True', 'question5': '25.3%', 'question6': 'Shanghai', 'question7': '$6.1', 'question8': '$43.48', 'question9': '40.51 Mbps'}",631bf21ed39cc585365d435b,123240,Moderate,Mon Jun 12 2023 18:41:00 GMT-0700 (Mountain Standard Time),1686620460161,12.2222333333333,Near-infrared window in biological tissue,0,Mon Jun 12 2023 18:53:13 GMT-0700 (Mountain Standard Time),8,20,Figure 3: The molar extinction coefficients of eumelanin and pheomelanin.[5],Figure 3: Figure 3: The molar extinction coefficients of eumelanin and pheomelanin.,116,15,15,0.5757575757575760,0.568885862827301,0.5853699445724490,0.9823436141014100,1,1,0,0,1,1,1,0,1,1,0,1
73,Nanortalik / Population,first,,A graph of bars showing Nanortalik population by year. Years start from 1991 and end at 2010.,2,1686621193495,1,prolific/train-0-370954.png,TRUE,English,"{'question1': 'False', 'question10': '$0.71', 'question11': '1 to 3', 'question12': 'True', 'question2': 'Great Britain', 'question3': '30-40 km', 'question4': 'True', 'question5': '25.3%', 'question6': 'Shanghai', 'question7': '$6.1', 'question8': '$43.48', 'question9': '40.51 Mbps'}",631bf21ed39cc585365d435b,57205,Moderate,Mon Jun 12 2023 18:41:00 GMT-0700 (Mountain Standard Time),1686620460161,12.2222333333333,Ikerasaarsuk,1,Mon Jun 12 2023 18:53:13 GMT-0700 (Mountain Standard Time),8,19,"Nanortalik population growth dynamics, 1991-2010. Source: Statistics Greenland[12]",Nanortalik population dynamics,93,14,3,0.6756756756756760,0.6817142963409420,0.6657611131668090,0.7891201972961430,1,1,0,0,1,1,1,0,1,1,0,1
74,"Safety of electronic cigarettes / Fires, explosions, and other battery-related malfunctions",first,,A graph showing E-cigarettes fires and explosions by year. Years range from 2009 and end at 2016. A red line represents E-Cigarettes sales by million. A blue line represents Annual number of incidents that occurred during those years.,4,1686621193495,1,prolific/train-0-407025.png,TRUE,English,"{'question1': 'False', 'question10': '$0.71', 'question11': '1 to 3', 'question12': 'True', 'question2': 'Great Britain', 'question3': '30-40 km', 'question4': 'True', 'question5': '25.3%', 'question6': 'Shanghai', 'question7': '$6.1', 'question8': '$43.48', 'question9': '40.51 Mbps'}",631bf21ed39cc585365d435b,160359,Moderate,Mon Jun 12 2023 18:41:00 GMT-0700 (Mountain Standard Time),1686620460161,12.2222333333333,Safety of electronic cigarettes,2,Mon Jun 12 2023 18:53:13 GMT-0700 (Mountain Standard Time),8,42,Graphic from a July 2016 United States Fire Administration (USFA) report entitled Electronic Cigarette Fires and Explosions in the United States 2009 – 2016.[326] There has been an increase in the number of severe and moderate injuries resulting from e-cigarette explosions and fires since 2014.[326] The USFA noted that this appears to correlate well with the e-cigarette sales trend.[326],Graphic from a July 2016 United States Fire Administration (USFA) report entitled Electronic Cigarette Fires and Explosions in the United States 2009 – 2016. There has been an increase in the number of severe and moderate injuries resulting from e-cigarette explosions and fires since 2014. The USFA noted that this appears to correlate well with the e-cigarette sales trend.,234,73,64,0.6666666666666670,0.678399384021759,0.665189266204834,0.979203999042511,1,1,0,0,1,1,1,0,1,1,0,1
75,European debt crisis contagion,first,,"The bottom axis is in 9-month increments from Jan 2010 to Oct 2016, and the left axis ranges from 0 to 25000 basis points. Greece is the country that is most easily seen due to its exceptionally high amounts of CDSs (especially around Apr 2012), while other countries' CDS rates are relatively low through the whole time span. To aid in seeing these, there in an inlay magnifying the peaks of the other countries, which all lay around the same time (Apr 2012).",2,1686621204969,1,prolific/train-0-359850.png,TRUE,English,"{'question1': 'False', 'question10': '$0.71', 'question11': 'Skip', 'question12': 'False', 'question2': 'Great Britain', 'question3': '30-40 km', 'question4': 'True', 'question5': '17.6%', 'question6': 'Shanghai', 'question7': '$6.1', 'question8': '$50.54', 'question9': '40.51 Mbps'}",5d5822f11da7d10001a1a82c,177278,Very Well,Mon Jun 12 2023 18:37:40 GMT-0700 (Pacific Daylight Time),1686620260759,15.7368333333333,European debt crisis contagion,0,Mon Jun 12 2023 18:53:24 GMT-0700 (Pacific Daylight Time),11,95,"Sovereign CDS showing a temporary loss of confidence in creditworthiness of certain EU countries. The left axis is in basis points; a level of 1,000 means it costs $1 million to protect $10 million of debt for five years.",Sovereign credit default swaps for EU countries in 2010-2013,460,44,9,0.6326530612244900,0.5111554265022280,0.3277563452720640,0.520787239074707,1,1,0,1,1,1,1,1,1,1,1,1
76,Normally distributed and uncorrelated does not imply independent / Examples / A symmetric example,first,,"The X and Y axes both range from -3 to 3, and the data points follow an ""X"" shape mostly within these ranges, indicating that there is not necessarily a correlation. As the data points approach 0, they become increasingly numerous, becoming indistinguishable from each other around -1.5 to 1.5 range on each axis.",2,1686621204969,1,prolific/train-0-236684.png,TRUE,English,"{'question1': 'False', 'question10': '$0.71', 'question11': 'Skip', 'question12': 'False', 'question2': 'Great Britain', 'question3': '30-40 km', 'question4': 'True', 'question5': '17.6%', 'question6': 'Shanghai', 'question7': '$6.1', 'question8': '$50.54', 'question9': '40.51 Mbps'}",5d5822f11da7d10001a1a82c,127262,Very Well,Mon Jun 12 2023 18:37:40 GMT-0700 (Pacific Daylight Time),1686620260759,15.7368333333333,Normally distributed and uncorrelated does not imply independent,1,Mon Jun 12 2023 18:53:24 GMT-0700 (Pacific Daylight Time),11,62,"Joint range of
  
    
      
        X
      
    
    {\displaystyle X}
  
 and
  
    
      
        Y
      
    
    {\displaystyle Y}
  
. Darker indicates higher value of the density function.","Two normally distributed, uncorrelated but dependent variables.",313,24,9,0.5,0.41660642623901400,0.29821377992630000,0.2453407645225530,1,1,0,1,1,1,1,1,1,1,1,1
77,European debt crisis / Evolution of the crisis / Portugal,first,,"The left axis shows debt in percent of GDP from 0% to 200%, and the bottom axis tracks time by year from 1999 to 2019. The Eurozone average debt is relatively steady from 1999 to 2008 around roughly 70%, until after that when it rises to around 95% in 2013 before leveling off again. Portugal, however, rises steadily from 51% (1999) to 72% (2008) and then rises sharply to 131% (2015) before leveling off and decreasing slightly until 2019. Years 2013 to 2019 use data from Ernst & Young from Oxford Economics data, while ever year before 2013 uses Eurostat data.",2,1686621204969,1,prolific/train-0-191651.png,TRUE,English,"{'question1': 'False', 'question10': '$0.71', 'question11': 'Skip', 'question12': 'False', 'question2': 'Great Britain', 'question3': '30-40 km', 'question4': 'True', 'question5': '17.6%', 'question6': 'Shanghai', 'question7': '$6.1', 'question8': '$50.54', 'question9': '40.51 Mbps'}",5d5822f11da7d10001a1a82c,227201,Very Well,Mon Jun 12 2023 18:37:40 GMT-0700 (Pacific Daylight Time),1686620260759,15.7368333333333,European debt crisis,2,Mon Jun 12 2023 18:53:24 GMT-0700 (Pacific Daylight Time),11,123,Debt of Portugal compared to eurozone average since 1999,Portuguese debt compared to eurozone average,564,9,6,0.5217391304347830,0.789470911026001,0.7384327054023740,0.9214153289794920,1,1,0,1,1,1,1,1,1,1,1,1
78,European debt crisis contagion,first,,Graph from Bloomberg showing the changes in creditworthiness for a number of European countries with Greece having the widest range of change. ,5,1686621211707,1,prolific/train-0-359850.png,TRUE,English,"{'question1': 'False', 'question10': '$0.71', 'question11': '1 to 3', 'question12': 'False', 'question2': 'Great Britain', 'question3': '30-40 km', 'question4': 'True', 'question5': '17.6%', 'question6': 'Shanghai', 'question7': '$7.5', 'question8': '$50.54', 'question9': '42.30 Mbps'}",60fcc31937fa85c245621998,126825,Moderate,Mon Jun 12 2023 21:37:27 GMT-0400 (Eastern Daylight Time),1686620247848,16.0643166666667,European debt crisis contagion,0,Mon Jun 12 2023 21:53:31 GMT-0400 (Eastern Daylight Time),9,23,"Sovereign CDS showing a temporary loss of confidence in creditworthiness of certain EU countries. The left axis is in basis points; a level of 1,000 means it costs $1 million to protect $10 million of debt for five years.",Sovereign credit default swaps for EU countries in 2010-2013,143,44,9,0.6052631578947370,0.38685160875320400,0.5080442428588870,0.520787239074707,1,1,0,1,1,1,1,1,1,0,1,0
79,"Safety of electronic cigarettes / Fires, explosions, and other battery-related malfunctions",first,,"Graph comparing E-cigarette sales in millions to number of incidents that resulted in injuries caused by e-cigarettes. Sales were stagnant from 2009-2012 but have steadily risen, with a brief drop in 2014. The number of injuries has risen at approximately the same rate as sales, but without a drop in 2014.",3,1686621211707,1,prolific/train-0-407025.png,TRUE,English,"{'question1': 'False', 'question10': '$0.71', 'question11': '1 to 3', 'question12': 'False', 'question2': 'Great Britain', 'question3': '30-40 km', 'question4': 'True', 'question5': '17.6%', 'question6': 'Shanghai', 'question7': '$7.5', 'question8': '$50.54', 'question9': '42.30 Mbps'}",60fcc31937fa85c245621998,184305,Moderate,Mon Jun 12 2023 21:37:27 GMT-0400 (Eastern Daylight Time),1686620247848,16.0643166666667,Safety of electronic cigarettes,1,Mon Jun 12 2023 21:53:31 GMT-0400 (Eastern Daylight Time),9,56,Graphic from a July 2016 United States Fire Administration (USFA) report entitled Electronic Cigarette Fires and Explosions in the United States 2009 – 2016.[326] There has been an increase in the number of severe and moderate injuries resulting from e-cigarette explosions and fires since 2014.[326] The USFA noted that this appears to correlate well with the e-cigarette sales trend.[326],Graphic from a July 2016 United States Fire Administration (USFA) report entitled Electronic Cigarette Fires and Explosions in the United States 2009 – 2016. There has been an increase in the number of severe and moderate injuries resulting from e-cigarette explosions and fires since 2014. The USFA noted that this appears to correlate well with the e-cigarette sales trend.,309,73,64,0.7291666666666670,0.7679787278175350,0.7533696889877320,0.979203999042511,1,1,0,1,1,1,1,1,1,0,1,0
80,European debt crisis / Evolution of the crisis / Portugal,first,,"Line graph comparing debt of Portugal to Eurozone average from Eurostat. Until 2005, Portugal's debt in percentage of GDP was lower than that of the Eurozone but steadily rose since 1999. In 2005, it equaled the Eurozone average and stayed around it until 2009, when it rose above it. Since then, it continued to rise, reaching a high point in 2015 at 131% while the Eurozone average was around 90%. Since 2015, it has gradually lowered over time as has the Eurozone average, but Portugal remains well above that average.",4,1686621211707,1,prolific/train-0-191651.png,TRUE,English,"{'question1': 'False', 'question10': '$0.71', 'question11': '1 to 3', 'question12': 'False', 'question2': 'Great Britain', 'question3': '30-40 km', 'question4': 'True', 'question5': '17.6%', 'question6': 'Shanghai', 'question7': '$7.5', 'question8': '$50.54', 'question9': '42.30 Mbps'}",60fcc31937fa85c245621998,284591,Moderate,Mon Jun 12 2023 21:37:27 GMT-0400 (Eastern Daylight Time),1686620247848,16.0643166666667,European debt crisis,2,Mon Jun 12 2023 21:53:31 GMT-0400 (Eastern Daylight Time),9,105,Debt of Portugal compared to eurozone average since 1999,Portuguese debt compared to eurozone average,521,9,6,0.5714285714285710,0.82175612449646,0.7716102004051210,0.9214153289794920,1,1,0,1,1,1,1,1,1,0,1,0
81,European debt crisis / Evolution of the crisis / Portugal,first,,"It is a line graph depicting the debt of Portugal compared to eurozone average since 1999. The two lines intersect in 2009, meaning they had the same debt in percent of GDP. After that, the Eurozone debt in percent of GDP trends upward sharply for the rest of the graph.",4,1686621732023,1,prolific/train-0-191651.png,TRUE,english,"{'question1': 'False', 'question10': '$0.71', 'question11': '1 to 3', 'question12': 'False', 'question2': 'Great Britain', 'question3': '30-40 km', 'question4': 'True', 'question5': '25.3%', 'question6': 'Shanghai', 'question7': '$4.5', 'question8': '$50.54', 'question9': '40.51 Mbps'}",61097498fb9e97e8a701c33f,430581,Little,Mon Jun 12 2023 21:42:46 GMT-0400 (Eastern Daylight Time),1686620566939,19.4180666666667,European debt crisis,0,Mon Jun 12 2023 22:02:12 GMT-0400 (Eastern Daylight Time),9,55,Debt of Portugal compared to eurozone average since 1999,Portuguese debt compared to eurozone average,270,9,6,0.6666666666666670,0.7020955681800840,0.6661865711212160,0.9214153289794920,1,1,0,1,1,1,1,0,1,0,1,1
82,Single crossing condition,first,,This is two distributive functions intersecting,5,1686621732023,1,prolific/train-0-307125.png,FALSE,english,"{'question1': 'False', 'question10': '$0.71', 'question11': '1 to 3', 'question12': 'False', 'question2': 'Great Britain', 'question3': '30-40 km', 'question4': 'True', 'question5': '25.3%', 'question6': 'Shanghai', 'question7': '$4.5', 'question8': '$50.54', 'question9': '40.51 Mbps'}",61097498fb9e97e8a701c33f,30631,Little,Mon Jun 12 2023 21:42:46 GMT-0400 (Eastern Daylight Time),1686620566939,19.4180666666667,Single crossing condition,1,Mon Jun 12 2023 22:02:12 GMT-0400 (Eastern Daylight Time),9,6,Example of two cumulative distribution functions F(x) and G(x) which satisfy the single-crossing condition.,Example of two normal cumulative distribution functions F(x) and G(x) which satisfy the single-crossing condition.,47,21,22,0.5483870967741940,0.3820517361164090,0.353471040725708,0.9410582780838010,1,1,0,1,1,1,1,0,1,0,1,1
